"rt","stimulus","key_press","test_part","correct_response","trial_type","trial_index","time_elapsed","internal_node_id","correct"
"1956","ImagesTennis/TL100.png","188","test",".","image-keyboard-response","4","20857","0.0-3.0-1.0","false"
"1102","ImagesSoccer/VL105.png","188","test",",","image-keyboard-response","6","22463","0.0-3.0-1.1","true"
"1863","ImagesDirect/VR90.png","188","test",",","image-keyboard-response","8","24829","0.0-3.0-1.2","true"
"1319","ImagesTennis/TR97.5.png","188","test",",","image-keyboard-response","10","26651","0.0-3.0-1.3","true"
"1193","ImagesDirect/VL105.png","188","test",",","image-keyboard-response","12","28347","0.0-3.0-1.4","true"
"1155","ImagesDirect/VR97.5.png","190","test",",","image-keyboard-response","14","30006","0.0-3.0-1.5","false"
"974","ImagesTennis/TL95.png","190","test",".","image-keyboard-response","16","31483","0.0-3.0-1.6","true"
"870","ImagesTennis/TL90.png","190","test",".","image-keyboard-response","18","32857","0.0-3.0-1.7","true"
"1077","ImagesSoccer/VR107.5.png","190","test",".","image-keyboard-response","20","34437","0.0-3.0-1.8","true"
"906","ImagesTennis/TL102.5.png","188","test",",","image-keyboard-response","22","35846","0.0-3.0-1.9","true"
"792","ImagesDirect/VR95.png","190","test",",","image-keyboard-response","24","37141","0.0-3.0-1.10","false"
"1385","ImagesSoccer/VR90.png","188","test",",","image-keyboard-response","26","39029","0.0-3.0-1.11","true"
"678","ImagesDirect/VL107.5.png","188","test",",","image-keyboard-response","28","40210","0.0-3.0-1.12","true"
"975","ImagesSoccer/VR92.5.png","188","test",",","image-keyboard-response","30","41688","0.0-3.0-1.13","true"
"845","ImagesSoccer/VR105.png","190","test",".","image-keyboard-response","32","43036","0.0-3.0-1.14","true"
"905","ImagesDirect/VR105.png","190","test",".","image-keyboard-response","34","44445","0.0-3.0-1.15","true"
"768","ImagesTennis/TL97.5.png","190","test",".","image-keyboard-response","36","45717","0.0-3.0-1.16","true"
"830","ImagesDirect/VL102.5.png","188","test",",","image-keyboard-response","38","47051","0.0-3.0-1.17","true"
"882","ImagesTennis/TR95.png","188","test",",","image-keyboard-response","40","48436","0.0-3.0-1.18","true"
"1344","ImagesSoccer/VL97.5.png","190","test",".","image-keyboard-response","42","50283","0.0-3.0-1.19","true"
"1018","ImagesSoccer/VL92.5.png","190","test",".","image-keyboard-response","44","51804","0.0-3.0-1.20","true"
"698","ImagesSoccer/VL95.png","188","test",".","image-keyboard-response","46","53005","0.0-3.0-1.21","false"
"631","ImagesDirect/VL110.png","188","test",",","image-keyboard-response","48","54138","0.0-3.0-1.22","true"
"748","ImagesDirect/VR102.5.png","190","test",".","image-keyboard-response","50","55389","0.0-3.0-1.23","true"
"1249","ImagesDirect/VL97.5.png","188","test",".","image-keyboard-response","52","57141","0.0-3.0-1.24","false"
"739","ImagesTennis/TR105.png","190","test",".","image-keyboard-response","54","58383","0.0-3.0-1.25","true"
"749","ImagesSoccer/VR95.png","188","test",",","image-keyboard-response","56","59635","0.0-3.0-1.26","true"
"577","ImagesTennis/TR90.png","188","test",",","image-keyboard-response","58","60715","0.0-3.0-1.27","true"
"1171","ImagesTennis/TR92.5.png","188","test",",","image-keyboard-response","60","62389","0.0-3.0-1.28","true"
"669","ImagesDirect/VR92.5.png","190","test",",","image-keyboard-response","62","63561","0.0-3.0-1.29","false"
"841","ImagesTennis/TR100.png","188","test",".","image-keyboard-response","64","64904","0.0-3.0-1.30","false"
"652","ImagesSoccer/VR97.5.png","190","test",",","image-keyboard-response","66","66059","0.0-3.0-1.31","false"
"785","ImagesTennis/TR107.5.png","190","test",".","image-keyboard-response","68","67347","0.0-3.0-1.32","true"
"797","ImagesTennis/TL105.png","188","test",",","image-keyboard-response","70","68648","0.0-3.0-1.33","true"
"771","ImagesDirect/VR107.5.png","190","test",".","image-keyboard-response","72","69922","0.0-3.0-1.34","true"
"642","ImagesSoccer/VL110.png","188","test",",","image-keyboard-response","74","71067","0.0-3.0-1.35","true"
"1395","ImagesTennis/TL110.png","188","test",",","image-keyboard-response","76","72966","0.0-3.0-1.36","true"
"726","ImagesTennis/TR110.png","190","test",".","image-keyboard-response","78","74194","0.0-3.0-1.37","true"
"715","ImagesSoccer/VR110.png","190","test",".","image-keyboard-response","80","75412","0.0-3.0-1.38","true"
"1341","ImagesSoccer/VR100.png","190","test",".","image-keyboard-response","82","77256","0.0-3.0-1.39","true"
"1074","ImagesDirect/VL90.png","190","test",".","image-keyboard-response","84","78833","0.0-3.0-1.40","true"
"738","ImagesDirect/VL100.png","190","test",".","image-keyboard-response","86","80074","0.0-3.0-1.41","true"
"1157","ImagesSoccer/VL90.png","188","test",".","image-keyboard-response","88","81734","0.0-3.0-1.42","false"
"1005","ImagesDirect/VL95.png","190","test",".","image-keyboard-response","90","83244","0.0-3.0-1.43","true"
"852","ImagesTennis/TR102.5.png","188","test",".","image-keyboard-response","92","84599","0.0-3.0-1.44","false"
"941","ImagesSoccer/VL102.5.png","188","test",",","image-keyboard-response","94","86042","0.0-3.0-1.45","true"
"620","ImagesSoccer/VR102.5.png","190","test",".","image-keyboard-response","96","87165","0.0-3.0-1.46","true"
"887","ImagesTennis/TL107.5.png","188","test",",","image-keyboard-response","98","88555","0.0-3.0-1.47","true"
"721","ImagesSoccer/VL107.5.png","188","test",",","image-keyboard-response","100","89781","0.0-3.0-1.48","true"
"853","ImagesSoccer/VL100.png","188","test",".","image-keyboard-response","102","91137","0.0-3.0-1.49","false"
"884","ImagesDirect/VR110.png","190","test",".","image-keyboard-response","104","92524","0.0-3.0-1.50","true"
"697","ImagesTennis/TL92.5.png","190","test",".","image-keyboard-response","106","93724","0.0-3.0-1.51","true"
"862","ImagesDirect/VR100.png","190","test",".","image-keyboard-response","108","95089","0.0-3.0-1.52","true"
"827","ImagesDirect/VL92.5.png","188","test",".","image-keyboard-response","110","96419","0.0-3.0-1.53","false"
"674","ImagesDirect/VL100.png","188","test",".","image-keyboard-response","112","97596","0.0-3.0-1.54","false"
"619","ImagesTennis/TL105.png","188","test",",","image-keyboard-response","114","98718","0.0-3.0-1.55","true"
"663","ImagesSoccer/VL105.png","188","test",",","image-keyboard-response","116","99884","0.0-3.0-1.56","true"
"888","ImagesDirect/VR107.5.png","190","test",".","image-keyboard-response","118","101275","0.0-3.0-1.57","true"
"1024","ImagesDirect/VR92.5.png","188","test",",","image-keyboard-response","120","102802","0.0-3.0-1.58","true"
"620","ImagesTennis/TR90.png","188","test",",","image-keyboard-response","122","103925","0.0-3.0-1.59","true"
"773","ImagesSoccer/VL100.png","188","test",".","image-keyboard-response","124","105201","0.0-3.0-1.60","false"
"644","ImagesSoccer/VL110.png","188","test",",","image-keyboard-response","126","106348","0.0-3.0-1.61","true"
"676","ImagesDirect/VR110.png","190","test",".","image-keyboard-response","128","107527","0.0-3.0-1.62","true"
"745","ImagesTennis/TR102.5.png","190","test",".","image-keyboard-response","130","108774","0.0-3.0-1.63","true"
"1317","ImagesSoccer/VL95.png","188","test",".","image-keyboard-response","132","110594","0.0-3.0-1.64","false"
"635","ImagesDirect/VR105.png","190","test",".","image-keyboard-response","134","111732","0.0-3.0-1.65","true"
"753","ImagesSoccer/VR100.png","190","test",".","image-keyboard-response","136","112988","0.0-3.0-1.66","true"
"636","ImagesSoccer/VL97.5.png","188","test",".","image-keyboard-response","138","114127","0.0-3.0-1.67","false"
"740","ImagesTennis/TL107.5.png","188","test",",","image-keyboard-response","140","115370","0.0-3.0-1.68","true"
"610","ImagesTennis/TR107.5.png","190","test",".","image-keyboard-response","142","116483","0.0-3.0-1.69","true"
"654","ImagesDirect/VL107.5.png","188","test",",","image-keyboard-response","144","117640","0.0-3.0-1.70","true"
"856","ImagesTennis/TL97.5.png","188","test",".","image-keyboard-response","146","118999","0.0-3.0-1.71","false"
"759","ImagesDirect/VL90.png","190","test",".","image-keyboard-response","148","120261","0.0-3.0-1.72","true"
"697","ImagesSoccer/VR97.5.png","190","test",",","image-keyboard-response","150","121461","0.0-3.0-1.73","false"
"611","ImagesTennis/TR110.png","190","test",".","image-keyboard-response","152","122575","0.0-3.0-1.74","true"
"860","ImagesDirect/VR90.png","188","test",",","image-keyboard-response","154","123939","0.0-3.0-1.75","true"
"973","ImagesTennis/TL110.png","188","test",",","image-keyboard-response","156","125415","0.0-3.0-1.76","true"
"642","ImagesTennis/TL92.5.png","190","test",".","image-keyboard-response","158","126558","0.0-3.0-1.77","true"
"1071","ImagesTennis/TL102.5.png","188","test",",","image-keyboard-response","160","128133","0.0-3.0-1.78","true"
"610","ImagesSoccer/VL107.5.png","188","test",",","image-keyboard-response","162","129245","0.0-3.0-1.79","true"
"679","ImagesSoccer/VL102.5.png","188","test",",","image-keyboard-response","164","130426","0.0-3.0-1.80","true"
"1026","ImagesDirect/VL110.png","188","test",",","image-keyboard-response","166","131956","0.0-3.0-1.81","true"
"516","ImagesSoccer/VR107.5.png","190","test",".","image-keyboard-response","168","132975","0.0-3.0-1.82","true"
"898","ImagesDirect/VR97.5.png","188","test",",","image-keyboard-response","170","134376","0.0-3.0-1.83","true"
"648","ImagesDirect/VR100.png","190","test",".","image-keyboard-response","172","135526","0.0-3.0-1.84","true"
"704","ImagesDirect/VL92.5.png","190","test",".","image-keyboard-response","174","136733","0.0-3.0-1.85","true"
"689","ImagesSoccer/VR105.png","190","test",".","image-keyboard-response","176","137925","0.0-3.0-1.86","true"
"686","ImagesTennis/TL90.png","190","test",".","image-keyboard-response","178","139114","0.0-3.0-1.87","true"
"741","ImagesSoccer/VR90.png","188","test",",","image-keyboard-response","180","140359","0.0-3.0-1.88","true"
"554","ImagesTennis/TR92.5.png","188","test",",","image-keyboard-response","182","141416","0.0-3.0-1.89","true"
"702","ImagesDirect/VL97.5.png","188","test",".","image-keyboard-response","184","142620","0.0-3.0-1.90","false"
"669","ImagesTennis/TR97.5.png","188","test",",","image-keyboard-response","186","143792","0.0-3.0-1.91","true"
"1038","ImagesTennis/TL95.png","190","test",".","image-keyboard-response","188","145334","0.0-3.0-1.92","true"
"1015","ImagesTennis/TR105.png","190","test",".","image-keyboard-response","190","146851","0.0-3.0-1.93","true"
"694","ImagesSoccer/VR95.png","188","test",",","image-keyboard-response","192","148049","0.0-3.0-1.94","true"
"771","ImagesSoccer/VL90.png","190","test",".","image-keyboard-response","194","149322","0.0-3.0-1.95","true"
"692","ImagesDirect/VL102.5.png","188","test",",","image-keyboard-response","196","150517","0.0-3.0-1.96","true"
"1010","ImagesSoccer/VL92.5.png","190","test",".","image-keyboard-response","198","152030","0.0-3.0-1.97","true"
"616","ImagesTennis/TR95.png","188","test",",","image-keyboard-response","200","153149","0.0-3.0-1.98","true"
"715","ImagesSoccer/VR110.png","190","test",".","image-keyboard-response","202","154367","0.0-3.0-1.99","true"
"1142","ImagesTennis/TL100.png","188","test",".","image-keyboard-response","204","156012","0.0-3.0-1.100","false"
"812","ImagesTennis/TR100.png","188","test",".","image-keyboard-response","206","157326","0.0-3.0-1.101","false"
"699","ImagesDirect/VR102.5.png","190","test",".","image-keyboard-response","208","158528","0.0-3.0-1.102","true"
"965","ImagesDirect/VL95.png","190","test",".","image-keyboard-response","210","159995","0.0-3.0-1.103","true"
"1111","ImagesDirect/VR95.png","188","test",",","image-keyboard-response","212","161609","0.0-3.0-1.104","true"
"1306","ImagesSoccer/VR102.5.png","190","test",".","image-keyboard-response","214","163419","0.0-3.0-1.105","true"
"714","ImagesSoccer/VR92.5.png","188","test",",","image-keyboard-response","216","164635","0.0-3.0-1.106","true"
"752","ImagesDirect/VL105.png","188","test",",","image-keyboard-response","218","165890","0.0-3.0-1.107","true"
"1218","ImagesSoccer/VL97.5.png","188","test",".","image-keyboard-response","220","167611","0.0-3.0-1.108","false"
"747","ImagesTennis/TL107.5.png","188","test",",","image-keyboard-response","222","168861","0.0-3.0-1.109","true"
"779","ImagesDirect/VR105.png","190","test",".","image-keyboard-response","224","170143","0.0-3.0-1.110","true"
"975","ImagesSoccer/VR102.5.png","190","test",".","image-keyboard-response","226","171620","0.0-3.0-1.111","true"
"778","ImagesTennis/TR110.png","190","test",".","image-keyboard-response","228","172900","0.0-3.0-1.112","true"
"963","ImagesDirect/VR102.5.png","190","test",".","image-keyboard-response","230","174365","0.0-3.0-1.113","true"
"1588","ImagesTennis/TL102.5.png","190","test",",","image-keyboard-response","232","176455","0.0-3.0-1.114","false"
"1278","ImagesSoccer/VL92.5.png","190","test",".","image-keyboard-response","234","178235","0.0-3.0-1.115","true"
"515","ImagesTennis/TL92.5.png","190","test",".","image-keyboard-response","236","179252","0.0-3.0-1.116","true"
"874","ImagesDirect/VL92.5.png","188","test",".","image-keyboard-response","238","180628","0.0-3.0-1.117","false"
"608","ImagesTennis/TR95.png","188","test",",","image-keyboard-response","240","181740","0.0-3.0-1.118","true"
"617","ImagesSoccer/VR110.png","190","test",".","image-keyboard-response","242","182859","0.0-3.0-1.119","true"
"587","ImagesDirect/VR107.5.png","190","test",".","image-keyboard-response","244","183948","0.0-3.0-1.120","true"
"734","ImagesTennis/TL110.png","188","test",",","image-keyboard-response","246","185186","0.0-3.0-1.121","true"
"1158","ImagesSoccer/VR90.png","190","test",",","image-keyboard-response","248","186847","0.0-3.0-1.122","false"
"1286","ImagesDirect/VL110.png","188","test",",","image-keyboard-response","250","188636","0.0-3.0-1.123","true"
"1257","ImagesSoccer/VL95.png","188","test",".","image-keyboard-response","252","190395","0.0-3.0-1.124","false"
"564","ImagesDirect/VL105.png","188","test",",","image-keyboard-response","254","191461","0.0-3.0-1.125","true"
"646","ImagesSoccer/VR105.png","190","test",".","image-keyboard-response","256","192611","0.0-3.0-1.126","true"
"1071","ImagesDirect/VL97.5.png","190","test",".","image-keyboard-response","258","194184","0.0-3.0-1.127","true"
"602","ImagesSoccer/VR92.5.png","188","test",",","image-keyboard-response","260","195290","0.0-3.0-1.128","true"
"662","ImagesTennis/TL105.png","188","test",",","image-keyboard-response","262","196454","0.0-3.0-1.129","true"
"662","ImagesSoccer/VL110.png","188","test",",","image-keyboard-response","264","197619","0.0-3.0-1.130","true"
"775","ImagesDirect/VR90.png","190","test",",","image-keyboard-response","266","198897","0.0-3.0-1.131","false"
"1289","ImagesTennis/TR100.png","188","test",".","image-keyboard-response","268","200688","0.0-3.0-1.132","false"
"1461","ImagesDirect/VR97.5.png","190","test",",","image-keyboard-response","270","202652","0.0-3.0-1.133","false"
"768","ImagesTennis/TR102.5.png","190","test",".","image-keyboard-response","272","203923","0.0-3.0-1.134","true"
"1125","ImagesTennis/TR97.5.png","190","test",",","image-keyboard-response","274","205550","0.0-3.0-1.135","false"
"1597","ImagesSoccer/VL90.png","190","test",".","image-keyboard-response","276","207650","0.0-3.0-1.136","true"
"846","ImagesDirect/VL102.5.png","188","test",",","image-keyboard-response","278","209000","0.0-3.0-1.137","true"
"881","ImagesSoccer/VL102.5.png","188","test",",","image-keyboard-response","280","210383","0.0-3.0-1.138","true"
"925","ImagesTennis/TL97.5.png","188","test",".","image-keyboard-response","282","211811","0.0-3.0-1.139","false"
"696","ImagesSoccer/VR107.5.png","190","test",".","image-keyboard-response","284","213010","0.0-3.0-1.140","true"
"718","ImagesDirect/VR100.png","190","test",".","image-keyboard-response","286","214231","0.0-3.0-1.141","true"
"1381","ImagesTennis/TR105.png","190","test",".","image-keyboard-response","288","216115","0.0-3.0-1.142","true"
"1089","ImagesTennis/TR92.5.png","188","test",",","image-keyboard-response","290","217708","0.0-3.0-1.143","true"
"616","ImagesDirect/VL100.png","188","test",".","image-keyboard-response","292","218827","0.0-3.0-1.144","false"
"952","ImagesSoccer/VR95.png","188","test",",","image-keyboard-response","294","220282","0.0-3.0-1.145","true"
"818","ImagesSoccer/VR100.png","190","test",".","image-keyboard-response","296","221603","0.0-3.0-1.146","true"
"694","ImagesDirect/VR92.5.png","188","test",",","image-keyboard-response","298","222799","0.0-3.0-1.147","true"
"670","ImagesSoccer/VR97.5.png","188","test",",","image-keyboard-response","300","223971","0.0-3.0-1.148","true"
"586","ImagesSoccer/VL107.5.png","188","test",",","image-keyboard-response","302","225060","0.0-3.0-1.149","true"
"713","ImagesDirect/VL90.png","190","test",".","image-keyboard-response","304","226276","0.0-3.0-1.150","true"
"509","ImagesSoccer/VL105.png","188","test",",","image-keyboard-response","306","227288","0.0-3.0-1.151","true"
"759","ImagesTennis/TR107.5.png","190","test",".","image-keyboard-response","308","228550","0.0-3.0-1.152","true"
"633","ImagesSoccer/VL100.png","188","test",".","image-keyboard-response","310","229686","0.0-3.0-1.153","false"
"1191","ImagesDirect/VL95.png","188","test",".","image-keyboard-response","312","231380","0.0-3.0-1.154","false"
"595","ImagesTennis/TR90.png","188","test",",","image-keyboard-response","314","232478","0.0-3.0-1.155","true"
"726","ImagesDirect/VL107.5.png","188","test",",","image-keyboard-response","316","233707","0.0-3.0-1.156","true"
"974","ImagesDirect/VR95.png","190","test",",","image-keyboard-response","318","235183","0.0-3.0-1.157","false"
"598","ImagesDirect/VR110.png","190","test",".","image-keyboard-response","320","236284","0.0-3.0-1.158","true"
"753","ImagesTennis/TL95.png","190","test",".","image-keyboard-response","322","237540","0.0-3.0-1.159","true"
"699","ImagesTennis/TL100.png","190","test",".","image-keyboard-response","324","238742","0.0-3.0-1.160","true"
"578","ImagesTennis/TL90.png","190","test",".","image-keyboard-response","326","239823","0.0-3.0-1.161","true"
"1158","ImagesSoccer/VR102.5.png","190","test",".","image-keyboard-response","328","241484","0.0-3.0-1.162","true"
"688","ImagesDirect/VR107.5.png","190","test",".","image-keyboard-response","330","242676","0.0-3.0-1.163","true"
"727","ImagesTennis/TL92.5.png","190","test",".","image-keyboard-response","332","243905","0.0-3.0-1.164","true"
"613","ImagesSoccer/VL90.png","190","test",".","image-keyboard-response","334","245022","0.0-3.0-1.165","true"
"1163","ImagesTennis/TL100.png","188","test",".","image-keyboard-response","336","246687","0.0-3.0-1.166","false"
"674","ImagesTennis/TR90.png","188","test",",","image-keyboard-response","338","247865","0.0-3.0-1.167","true"
"531","ImagesTennis/TR92.5.png","188","test",",","image-keyboard-response","340","248898","0.0-3.0-1.168","true"
"556","ImagesDirect/VR100.png","190","test",".","image-keyboard-response","342","249957","0.0-3.0-1.169","true"
"668","ImagesDirect/VL90.png","190","test",".","image-keyboard-response","344","251128","0.0-3.0-1.170","true"
"681","ImagesSoccer/VR100.png","190","test",".","image-keyboard-response","346","252312","0.0-3.0-1.171","true"
"1207","ImagesSoccer/VR95.png","188","test",",","image-keyboard-response","348","254021","0.0-3.0-1.172","true"
"629","ImagesSoccer/VR90.png","190","test",",","image-keyboard-response","350","255154","0.0-3.0-1.173","false"
"571","ImagesSoccer/VR107.5.png","190","test",".","image-keyboard-response","352","256228","0.0-3.0-1.174","true"
"524","ImagesSoccer/VR110.png","190","test",".","image-keyboard-response","354","257255","0.0-3.0-1.175","true"
"777","ImagesTennis/TR100.png","188","test",".","image-keyboard-response","356","258535","0.0-3.0-1.176","false"
"557","ImagesTennis/TL95.png","190","test",".","image-keyboard-response","358","259596","0.0-3.0-1.177","true"
"817","ImagesSoccer/VR97.5.png","188","test",",","image-keyboard-response","360","260916","0.0-3.0-1.178","true"
"683","ImagesTennis/TR105.png","190","test",".","image-keyboard-response","362","262101","0.0-3.0-1.179","true"
"1102","ImagesTennis/TL105.png","188","test",",","image-keyboard-response","364","263706","0.0-3.0-1.180","true"
"802","ImagesSoccer/VR92.5.png","188","test",",","image-keyboard-response","366","265011","0.0-3.0-1.181","true"
"859","ImagesDirect/VR110.png","190","test",".","image-keyboard-response","368","266373","0.0-3.0-1.182","true"
"647","ImagesTennis/TL107.5.png","188","test",",","image-keyboard-response","370","267523","0.0-3.0-1.183","true"
"1076","ImagesDirect/VL95.png","188","test",".","image-keyboard-response","372","269103","0.0-3.0-1.184","false"
"1136","ImagesTennis/TR102.5.png","188","test",".","image-keyboard-response","374","270741","0.0-3.0-1.185","false"
"549","ImagesSoccer/VL107.5.png","188","test",",","image-keyboard-response","376","271793","0.0-3.0-1.186","true"
"599","ImagesTennis/TR107.5.png","190","test",".","image-keyboard-response","378","272895","0.0-3.0-1.187","true"
"1045","ImagesSoccer/VL97.5.png","188","test",".","image-keyboard-response","380","274442","0.0-3.0-1.188","false"
"859","ImagesDirect/VR90.png","188","test",",","image-keyboard-response","382","275804","0.0-3.0-1.189","true"
"617","ImagesDirect/VL100.png","188","test",".","image-keyboard-response","384","276925","0.0-3.0-1.190","false"
"458","ImagesDirect/VL97.5.png","188","test",".","image-keyboard-response","386","277886","0.0-3.0-1.191","false"
"515","ImagesSoccer/VL100.png","188","test",".","image-keyboard-response","388","278902","0.0-3.0-1.192","false"
"588","ImagesTennis/TR110.png","190","test",".","image-keyboard-response","390","279992","0.0-3.0-1.193","true"
"703","ImagesDirect/VL107.5.png","188","test",",","image-keyboard-response","392","281198","0.0-3.0-1.194","true"
"662","ImagesSoccer/VL102.5.png","188","test",",","image-keyboard-response","394","282362","0.0-3.0-1.195","true"
"873","ImagesSoccer/VL95.png","188","test",".","image-keyboard-response","396","283739","0.0-3.0-1.196","false"
"591","ImagesSoccer/VL110.png","188","test",",","image-keyboard-response","398","284833","0.0-3.0-1.197","true"
"863","ImagesTennis/TL90.png","190","test",".","image-keyboard-response","400","286199","0.0-3.0-1.198","true"
"871","ImagesTennis/TL102.5.png","188","test",",","image-keyboard-response","402","287572","0.0-3.0-1.199","true"
"632","ImagesSoccer/VR105.png","190","test",".","image-keyboard-response","404","288708","0.0-3.0-1.200","true"
"573","ImagesDirect/VL105.png","188","test",",","image-keyboard-response","406","289783","0.0-3.0-1.201","true"
"627","ImagesTennis/TR95.png","188","test",",","image-keyboard-response","408","290913","0.0-3.0-1.202","true"
"626","ImagesTennis/TR97.5.png","188","test",",","image-keyboard-response","410","292042","0.0-3.0-1.203","true"
"1149","ImagesTennis/TL97.5.png","188","test",".","image-keyboard-response","412","293694","0.0-3.0-1.204","false"
"626","ImagesDirect/VL102.5.png","188","test",",","image-keyboard-response","414","294823","0.0-3.0-1.205","true"
"557","ImagesDirect/VL110.png","188","test",",","image-keyboard-response","416","295883","0.0-3.0-1.206","true"
"510","ImagesDirect/VR105.png","190","test",".","image-keyboard-response","418","296896","0.0-3.0-1.207","true"
"566","ImagesDirect/VR102.5.png","190","test",".","image-keyboard-response","420","297964","0.0-3.0-1.208","true"
"1208","ImagesDirect/VL92.5.png","188","test",".","image-keyboard-response","422","299675","0.0-3.0-1.209","false"
"631","ImagesDirect/VR92.5.png","188","test",",","image-keyboard-response","424","300808","0.0-3.0-1.210","true"
"1310","ImagesDirect/VR97.5.png","190","test",",","image-keyboard-response","426","302621","0.0-3.0-1.211","false"
"554","ImagesSoccer/VL105.png","188","test",",","image-keyboard-response","428","303678","0.0-3.0-1.212","true"
"957","ImagesSoccer/VL92.5.png","190","test",".","image-keyboard-response","430","305138","0.0-3.0-1.213","true"
"882","ImagesDirect/VR95.png","188","test",",","image-keyboard-response","432","306522","0.0-3.0-1.214","true"
"789","ImagesTennis/TL110.png","188","test",",","image-keyboard-response","434","307813","0.0-3.0-1.215","true"
"812","ImagesSoccer/VR102.5.png","190","test",".","image-keyboard-response","436","309128","0.0-3.0-1.216","true"
"1422","ImagesDirect/VR92.5.png","188","test",",","image-keyboard-response","438","311053","0.0-3.0-1.217","true"
"654","ImagesDirect/VR110.png","190","test",".","image-keyboard-response","440","312210","0.0-3.0-1.218","true"
"1015","ImagesDirect/VR95.png","190","test",",","image-keyboard-response","442","313728","0.0-3.0-1.219","false"
"672","ImagesDirect/VL100.png","188","test",".","image-keyboard-response","444","314903","0.0-3.0-1.220","false"
"1172","ImagesDirect/VR90.png","188","test",",","image-keyboard-response","446","316578","0.0-3.0-1.221","true"
"689","ImagesTennis/TR95.png","188","test",",","image-keyboard-response","448","317770","0.0-3.0-1.222","true"
"829","ImagesDirect/VL90.png","190","test",".","image-keyboard-response","450","319102","0.0-3.0-1.223","true"
"713","ImagesSoccer/VR92.5.png","188","test",",","image-keyboard-response","452","320318","0.0-3.0-1.224","true"
"849","ImagesSoccer/VL100.png","188","test",".","image-keyboard-response","454","321669","0.0-3.0-1.225","false"
"518","ImagesSoccer/VL90.png","188","test",".","image-keyboard-response","456","322690","0.0-3.0-1.226","false"
"780","ImagesTennis/TR110.png","190","test",".","image-keyboard-response","458","323972","0.0-3.0-1.227","true"
"1085","ImagesDirect/VL95.png","188","test",".","image-keyboard-response","460","325560","0.0-3.0-1.228","false"
"655","ImagesTennis/TL107.5.png","188","test",",","image-keyboard-response","462","326717","0.0-3.0-1.229","true"
"636","ImagesSoccer/VL102.5.png","188","test",",","image-keyboard-response","464","327856","0.0-3.0-1.230","true"
"659","ImagesTennis/TL95.png","190","test",".","image-keyboard-response","466","329018","0.0-3.0-1.231","true"
"637","ImagesTennis/TR102.5.png","188","test",".","image-keyboard-response","468","330158","0.0-3.0-1.232","false"
"1158","ImagesTennis/TL102.5.png","188","test",",","image-keyboard-response","470","331820","0.0-3.0-1.233","true"
"834","ImagesSoccer/VR105.png","190","test",".","image-keyboard-response","472","333156","0.0-3.0-1.234","true"
"630","ImagesSoccer/VL97.5.png","188","test",".","image-keyboard-response","474","334289","0.0-3.0-1.235","false"
"626","ImagesTennis/TR92.5.png","188","test",",","image-keyboard-response","476","335418","0.0-3.0-1.236","true"
"433","ImagesSoccer/VR90.png","188","test",",","image-keyboard-response","478","336354","0.0-3.0-1.237","true"
"877","ImagesDirect/VL92.5.png","188","test",".","image-keyboard-response","480","337733","0.0-3.0-1.238","false"
"745","ImagesTennis/TL110.png","188","test",",","image-keyboard-response","482","338981","0.0-3.0-1.239","true"
"915","ImagesSoccer/VR95.png","190","test",",","image-keyboard-response","484","340399","0.0-3.0-1.240","false"
"644","ImagesTennis/TR90.png","188","test",",","image-keyboard-response","486","341546","0.0-3.0-1.241","true"
"1245","ImagesTennis/TR100.png","190","test",".","image-keyboard-response","488","343294","0.0-3.0-1.242","true"
"942","ImagesTennis/TL97.5.png","190","test",".","image-keyboard-response","490","344740","0.0-3.0-1.243","true"
"641","ImagesDirect/VR102.5.png","190","test",".","image-keyboard-response","492","345883","0.0-3.0-1.244","true"
"1322","ImagesSoccer/VL92.5.png","188","test",".","image-keyboard-response","494","347708","0.0-3.0-1.245","false"
"946","ImagesTennis/TR107.5.png","190","test",".","image-keyboard-response","496","349157","0.0-3.0-1.246","true"
"1214","ImagesSoccer/VL95.png","188","test",".","image-keyboard-response","498","350874","0.0-3.0-1.247","false"
"679","ImagesSoccer/VL107.5.png","188","test",",","image-keyboard-response","500","352056","0.0-3.0-1.248","true"
"681","ImagesDirect/VL107.5.png","188","test",",","image-keyboard-response","502","353240","0.0-3.0-1.249","true"
"769","ImagesDirect/VL105.png","188","test",",","image-keyboard-response","504","354512","0.0-3.0-1.250","true"
"620","ImagesSoccer/VL110.png","188","test",",","image-keyboard-response","506","355635","0.0-3.0-1.251","true"
"709","ImagesSoccer/VR107.5.png","190","test",".","image-keyboard-response","508","356846","0.0-3.0-1.252","true"
"1324","ImagesSoccer/VR97.5.png","188","test",",","image-keyboard-response","510","358673","0.0-3.0-1.253","true"
"921","ImagesTennis/TL90.png","190","test",".","image-keyboard-response","512","360098","0.0-3.0-1.254","true"
"748","ImagesTennis/TL105.png","188","test",",","image-keyboard-response","514","361348","0.0-3.0-1.255","true"
"697","ImagesTennis/TL100.png","188","test",".","image-keyboard-response","516","362548","0.0-3.0-1.256","false"
"613","ImagesDirect/VR100.png","190","test",".","image-keyboard-response","518","363664","0.0-3.0-1.257","true"
"579","ImagesDirect/VR97.5.png","190","test",",","image-keyboard-response","520","364746","0.0-3.0-1.258","false"
"609","ImagesDirect/VL110.png","188","test",",","image-keyboard-response","522","365858","0.0-3.0-1.259","true"
"891","ImagesSoccer/VR110.png","190","test",".","image-keyboard-response","524","367253","0.0-3.0-1.260","true"
"1124","ImagesDirect/VL97.5.png","188","test",".","image-keyboard-response","526","368879","0.0-3.0-1.261","false"
"593","ImagesTennis/TR105.png","190","test",".","image-keyboard-response","528","369974","0.0-3.0-1.262","true"
"632","ImagesDirect/VR105.png","190","test",".","image-keyboard-response","530","371110","0.0-3.0-1.263","true"
"726","ImagesDirect/VL102.5.png","190","test",",","image-keyboard-response","532","372339","0.0-3.0-1.264","false"
"1013","ImagesTennis/TR97.5.png","188","test",",","image-keyboard-response","534","373854","0.0-3.0-1.265","true"
"552","ImagesSoccer/VR100.png","190","test",".","image-keyboard-response","536","374909","0.0-3.0-1.266","true"
"627","ImagesTennis/TL92.5.png","190","test",".","image-keyboard-response","538","376039","0.0-3.0-1.267","true"
"543","ImagesDirect/VR107.5.png","190","test",".","image-keyboard-response","540","377085","0.0-3.0-1.268","true"
"523","ImagesSoccer/VL105.png","188","test",",","image-keyboard-response","542","378111","0.0-3.0-1.269","true"
"2433","ImagesCoins/10L105.png","188","test",",","image-keyboard-response","544","381047","0.0-4.0-1.0","true"
"922","ImagesCoins/10R107.5.png","190","test",".","image-keyboard-response","546","382474","0.0-4.0-1.1","true"
"869","ImagesCoins/10L107.5.png","188","test",",","image-keyboard-response","548","383847","0.0-4.0-1.2","true"
"1492","ImagesCoins/10R90.png","188","test",",","image-keyboard-response","550","385842","0.0-4.0-1.3","true"
"949","ImagesCoins/10L102.5.png","188","test",",","image-keyboard-response","552","387295","0.0-4.0-1.4","true"
"1614","ImagesCoins/10R92.5.png","190","test",",","image-keyboard-response","554","389413","0.0-4.0-1.5","false"
"1364","ImagesCoins/10L100.png","190","test",".","image-keyboard-response","556","391281","0.0-4.0-1.6","true"
"1154","ImagesCoins/10R95.png","190","test",",","image-keyboard-response","558","392938","0.0-4.0-1.7","false"
"1626","ImagesCoins/10L92.5.png","190","test",".","image-keyboard-response","560","395068","0.0-4.0-1.8","true"
"1228","ImagesCoins/10L90.png","190","test",".","image-keyboard-response","562","396800","0.0-4.0-1.9","true"
"1221","ImagesCoins/10R102.5.png","190","test",".","image-keyboard-response","564","398524","0.0-4.0-1.10","true"
"831","ImagesCoins/10R105.png","190","test",".","image-keyboard-response","566","399859","0.0-4.0-1.11","true"
"605","ImagesCoins/10R110.png","190","test",".","image-keyboard-response","568","400968","0.0-4.0-1.12","true"
"1015","ImagesCoins/10L95.png","190","test",".","image-keyboard-response","570","402486","0.0-4.0-1.13","true"
"681","ImagesCoins/10R100.png","190","test",".","image-keyboard-response","572","403670","0.0-4.0-1.14","true"
"1168","ImagesCoins/10L97.5.png","188","test",".","image-keyboard-response","574","405341","0.0-4.0-1.15","false"
"1007","ImagesCoins/10R97.5.png","188","test",",","image-keyboard-response","576","406851","0.0-4.0-1.16","true"
"776","ImagesCoins/10L110.png","188","test",",","image-keyboard-response","578","408130","0.0-4.0-1.17","true"
"1181","ImagesCoins/10L95.png","190","test",".","image-keyboard-response","580","409815","0.0-4.0-1.18","true"
"671","ImagesCoins/10R105.png","190","test",".","image-keyboard-response","582","410990","0.0-4.0-1.19","true"
"737","ImagesCoins/10L107.5.png","188","test",",","image-keyboard-response","584","412230","0.0-4.0-1.20","true"
"781","ImagesCoins/10R107.5.png","188","test",".","image-keyboard-response","586","413514","0.0-4.0-1.21","false"
"915","ImagesCoins/10L110.png","188","test",",","image-keyboard-response","588","414933","0.0-4.0-1.22","true"
"840","ImagesCoins/10L105.png","188","test",",","image-keyboard-response","590","416275","0.0-4.0-1.23","true"
"961","ImagesCoins/10R100.png","190","test",".","image-keyboard-response","592","417740","0.0-4.0-1.24","true"
"1158","ImagesCoins/10R92.5.png","190","test",",","image-keyboard-response","594","419401","0.0-4.0-1.25","false"
"641","ImagesCoins/10R110.png","190","test",".","image-keyboard-response","596","420546","0.0-4.0-1.26","true"
"532","ImagesCoins/10L90.png","190","test",".","image-keyboard-response","598","421580","0.0-4.0-1.27","true"
"1741","ImagesCoins/10L97.5.png","190","test",".","image-keyboard-response","600","423824","0.0-4.0-1.28","true"
"1507","ImagesCoins/10L102.5.png","190","test",",","image-keyboard-response","602","425834","0.0-4.0-1.29","false"
"1791","ImagesCoins/10L92.5.png","190","test",".","image-keyboard-response","604","428128","0.0-4.0-1.30","true"
"1644","ImagesCoins/10R102.5.png","190","test",".","image-keyboard-response","606","430275","0.0-4.0-1.31","true"
"922","ImagesCoins/10R97.5.png","190","test",",","image-keyboard-response","608","431700","0.0-4.0-1.32","false"
"809","ImagesCoins/10R95.png","190","test",",","image-keyboard-response","610","433012","0.0-4.0-1.33","false"
"730","ImagesCoins/10L100.png","188","test",".","image-keyboard-response","612","434245","0.0-4.0-1.34","false"
"901","ImagesCoins/10R90.png","188","test",",","image-keyboard-response","614","435650","0.0-4.0-1.35","true"
"414","ImagesCoins/10R97.5.png","188","test",",","image-keyboard-response","616","436567","0.0-4.0-1.36","true"
"777","ImagesCoins/10L90.png","190","test",".","image-keyboard-response","618","437847","0.0-4.0-1.37","true"
"917","ImagesCoins/10L97.5.png","188","test",".","image-keyboard-response","620","439267","0.0-4.0-1.38","false"
"687","ImagesCoins/10L107.5.png","188","test",",","image-keyboard-response","622","440457","0.0-4.0-1.39","true"
"629","ImagesCoins/10R110.png","190","test",".","image-keyboard-response","624","441589","0.0-4.0-1.40","true"
"606","ImagesCoins/10L100.png","188","test",".","image-keyboard-response","626","442698","0.0-4.0-1.41","false"
"542","ImagesCoins/10L110.png","188","test",",","image-keyboard-response","628","443743","0.0-4.0-1.42","true"
"1014","ImagesCoins/10L95.png","190","test",".","image-keyboard-response","630","445260","0.0-4.0-1.43","true"
"635","ImagesCoins/10R102.5.png","190","test",".","image-keyboard-response","632","446398","0.0-4.0-1.44","true"
"670","ImagesCoins/10L105.png","188","test",",","image-keyboard-response","634","447570","0.0-4.0-1.45","true"
"572","ImagesCoins/10R105.png","190","test",".","image-keyboard-response","636","448645","0.0-4.0-1.46","true"
"604","ImagesCoins/10L92.5.png","190","test",".","image-keyboard-response","638","449752","0.0-4.0-1.47","true"
"633","ImagesCoins/10L102.5.png","188","test",",","image-keyboard-response","640","450888","0.0-4.0-1.48","true"
"1072","ImagesCoins/10R92.5.png","188","test",",","image-keyboard-response","642","452463","0.0-4.0-1.49","true"
"738","ImagesCoins/10R90.png","188","test",",","image-keyboard-response","644","453705","0.0-4.0-1.50","true"
"1311","ImagesCoins/10R95.png","190","test",",","image-keyboard-response","646","455519","0.0-4.0-1.51","false"
"571","ImagesCoins/10R107.5.png","190","test",".","image-keyboard-response","648","456593","0.0-4.0-1.52","true"
"585","ImagesCoins/10R100.png","190","test",".","image-keyboard-response","650","457681","0.0-4.0-1.53","true"
"601","ImagesCoins/10L105.png","188","test",",","image-keyboard-response","652","458785","0.0-4.0-1.54","true"
"481","ImagesCoins/10L102.5.png","188","test",",","image-keyboard-response","654","459769","0.0-4.0-1.55","true"
"508","ImagesCoins/10R107.5.png","190","test",".","image-keyboard-response","656","460781","0.0-4.0-1.56","true"
"916","ImagesCoins/10L90.png","190","test",".","image-keyboard-response","658","462200","0.0-4.0-1.57","true"
"922","ImagesCoins/10L92.5.png","190","test",".","image-keyboard-response","660","463625","0.0-4.0-1.58","true"
"566","ImagesCoins/10R102.5.png","190","test",".","image-keyboard-response","662","464694","0.0-4.0-1.59","true"
"620","ImagesCoins/10R105.png","190","test",".","image-keyboard-response","664","465817","0.0-4.0-1.60","true"
"602","ImagesCoins/10R97.5.png","190","test",",","image-keyboard-response","666","466922","0.0-4.0-1.61","false"
"451","ImagesCoins/10R92.5.png","190","test",",","image-keyboard-response","668","467876","0.0-4.0-1.62","false"
"1832","ImagesCoins/10L97.5.png","190","test",".","image-keyboard-response","670","470211","0.0-4.0-1.63","true"
"645","ImagesCoins/10L110.png","188","test",",","image-keyboard-response","672","471359","0.0-4.0-1.64","true"
"1535","ImagesCoins/10R95.png","190","test",",","image-keyboard-response","674","473397","0.0-4.0-1.65","false"
"1025","ImagesCoins/10L100.png","188","test",".","image-keyboard-response","676","474925","0.0-4.0-1.66","false"
"737","ImagesCoins/10R110.png","190","test",".","image-keyboard-response","678","476165","0.0-4.0-1.67","true"
"984","ImagesCoins/10R90.png","188","test",",","image-keyboard-response","680","477651","0.0-4.0-1.68","true"
"738","ImagesCoins/10R100.png","190","test",".","image-keyboard-response","682","478892","0.0-4.0-1.69","true"
"873","ImagesCoins/10L107.5.png","188","test",",","image-keyboard-response","684","480268","0.0-4.0-1.70","true"
"997","ImagesCoins/10L95.png","190","test",".","image-keyboard-response","686","481769","0.0-4.0-1.71","true"
"566","ImagesCoins/10L97.5.png","190","test",".","image-keyboard-response","688","482837","0.0-4.0-1.72","true"
"481","ImagesCoins/10L105.png","190","test",",","image-keyboard-response","690","483820","0.0-4.0-1.73","false"
"570","ImagesCoins/10R102.5.png","190","test",".","image-keyboard-response","692","484893","0.0-4.0-1.74","true"
"659","ImagesCoins/10R100.png","190","test",".","image-keyboard-response","694","486055","0.0-4.0-1.75","true"
"630","ImagesCoins/10R95.png","190","test",",","image-keyboard-response","696","487188","0.0-4.0-1.76","false"
"806","ImagesCoins/10R90.png","188","test",",","image-keyboard-response","698","488497","0.0-4.0-1.77","true"
"600","ImagesCoins/10L107.5.png","188","test",",","image-keyboard-response","700","489601","0.0-4.0-1.78","true"
"572","ImagesCoins/10R105.png","190","test",".","image-keyboard-response","702","490677","0.0-4.0-1.79","true"
"541","ImagesCoins/10R110.png","190","test",".","image-keyboard-response","704","491721","0.0-4.0-1.80","true"
"776","ImagesCoins/10L100.png","188","test",".","image-keyboard-response","706","493000","0.0-4.0-1.81","false"
"660","ImagesCoins/10L92.5.png","190","test",".","image-keyboard-response","708","494164","0.0-4.0-1.82","true"
"648","ImagesCoins/10L102.5.png","188","test",",","image-keyboard-response","710","495315","0.0-4.0-1.83","true"
"641","ImagesCoins/10L110.png","188","test",",","image-keyboard-response","712","496459","0.0-4.0-1.84","true"
"802","ImagesCoins/10L90.png","190","test",".","image-keyboard-response","714","497764","0.0-4.0-1.85","true"
"1206","ImagesCoins/10R92.5.png","188","test",",","image-keyboard-response","716","499474","0.0-4.0-1.86","true"
"1046","ImagesCoins/10L95.png","190","test",".","image-keyboard-response","718","501023","0.0-4.0-1.87","true"
"649","ImagesCoins/10R107.5.png","190","test",".","image-keyboard-response","720","502176","0.0-4.0-1.88","true"
"688","ImagesCoins/10R97.5.png","190","test",",","image-keyboard-response","722","503368","0.0-4.0-1.89","false"
