"rt","stimulus","key_press","test_part","correct_response","trial_type","trial_index","time_elapsed","internal_node_id","correct"
"3030","ImagesDirect/VL97.5.png","190","test",".","image-keyboard-response","4","35429","0.0-3.0-1.0","true"
"806","ImagesDirect/VR92.5.png","188","test",",","image-keyboard-response","6","36740","0.0-3.0-1.1","true"
"929","ImagesDirect/VR97.5.png","190","test",",","image-keyboard-response","8","38174","0.0-3.0-1.2","false"
"846","ImagesTennis/TR110.png","190","test",".","image-keyboard-response","10","39535","0.0-3.0-1.3","true"
"752","ImagesDirect/VR110.png","190","test",".","image-keyboard-response","12","40798","0.0-3.0-1.4","true"
"724","ImagesDirect/VL100.png","188","test",".","image-keyboard-response","14","42027","0.0-3.0-1.5","false"
"972","ImagesTennis/TR90.png","188","test",",","image-keyboard-response","16","43518","0.0-3.0-1.6","true"
"712","ImagesDirect/VR102.5.png","190","test",".","image-keyboard-response","18","44733","0.0-3.0-1.7","true"
"833","ImagesTennis/TL90.png","190","test",".","image-keyboard-response","20","46079","0.0-3.0-1.8","true"
"931","ImagesSoccer/VR90.png","188","test",",","image-keyboard-response","22","47527","0.0-3.0-1.9","true"
"795","ImagesDirect/VR107.5.png","190","test",".","image-keyboard-response","24","48828","0.0-3.0-1.10","true"
"1245","ImagesSoccer/VR95.png","188","test",",","image-keyboard-response","26","50588","0.0-3.0-1.11","true"
"799","ImagesDirect/VL105.png","188","test",",","image-keyboard-response","28","51902","0.0-3.0-1.12","true"
"762","ImagesTennis/TL110.png","188","test",",","image-keyboard-response","30","53184","0.0-3.0-1.13","true"
"727","ImagesTennis/TR107.5.png","190","test",".","image-keyboard-response","32","54415","0.0-3.0-1.14","true"
"1451","ImagesDirect/VR95.png","190","test",",","image-keyboard-response","34","56374","0.0-3.0-1.15","false"
"675","ImagesSoccer/VL95.png","188","test",".","image-keyboard-response","36","57564","0.0-3.0-1.16","false"
"1183","ImagesDirect/VL110.png","188","test",",","image-keyboard-response","38","59260","0.0-3.0-1.17","true"
"820","ImagesSoccer/VR107.5.png","190","test",".","image-keyboard-response","40","60594","0.0-3.0-1.18","true"
"724","ImagesDirect/VL107.5.png","188","test",",","image-keyboard-response","42","61837","0.0-3.0-1.19","true"
"3173","ImagesSoccer/VR92.5.png","188","test",",","image-keyboard-response","44","65516","0.0-3.0-1.20","true"
"1259","ImagesSoccer/VL100.png","188","test",".","image-keyboard-response","46","67285","0.0-3.0-1.21","false"
"1145","ImagesTennis/TR105.png","190","test",".","image-keyboard-response","48","68949","0.0-3.0-1.22","true"
"822","ImagesSoccer/VL105.png","188","test",",","image-keyboard-response","50","70285","0.0-3.0-1.23","true"
"995","ImagesTennis/TL92.5.png","190","test",".","image-keyboard-response","52","71799","0.0-3.0-1.24","true"
"1390","ImagesDirect/VL92.5.png","190","test",".","image-keyboard-response","54","73694","0.0-3.0-1.25","true"
"888","ImagesTennis/TR92.5.png","188","test",",","image-keyboard-response","56","75095","0.0-3.0-1.26","true"
"1096","ImagesTennis/TL100.png","190","test",".","image-keyboard-response","58","76702","0.0-3.0-1.27","true"
"926","ImagesDirect/VR105.png","190","test",".","image-keyboard-response","60","78150","0.0-3.0-1.28","true"
"841","ImagesSoccer/VR110.png","190","test",".","image-keyboard-response","62","79494","0.0-3.0-1.29","true"
"791","ImagesDirect/VL102.5.png","188","test",",","image-keyboard-response","64","80806","0.0-3.0-1.30","true"
"996","ImagesDirect/VR90.png","188","test",",","image-keyboard-response","66","82310","0.0-3.0-1.31","true"
"1021","ImagesTennis/TR97.5.png","188","test",",","image-keyboard-response","68","83836","0.0-3.0-1.32","true"
"803","ImagesSoccer/VL97.5.png","188","test",".","image-keyboard-response","70","85157","0.0-3.0-1.33","false"
"1022","ImagesSoccer/VR100.png","190","test",".","image-keyboard-response","72","86696","0.0-3.0-1.34","true"
"775","ImagesTennis/TL95.png","188","test",".","image-keyboard-response","74","87990","0.0-3.0-1.35","false"
"1375","ImagesTennis/TL102.5.png","190","test",",","image-keyboard-response","76","89869","0.0-3.0-1.36","false"
"1175","ImagesSoccer/VR97.5.png","188","test",",","image-keyboard-response","78","91548","0.0-3.0-1.37","true"
"1126","ImagesTennis/TL97.5.png","190","test",".","image-keyboard-response","80","93181","0.0-3.0-1.38","true"
"792","ImagesSoccer/VL102.5.png","188","test",",","image-keyboard-response","82","94485","0.0-3.0-1.39","true"
"730","ImagesDirect/VL95.png","188","test",".","image-keyboard-response","84","95725","0.0-3.0-1.40","false"
"2120","ImagesDirect/VR100.png","190","test",".","image-keyboard-response","86","98366","0.0-3.0-1.41","true"
"820","ImagesSoccer/VL107.5.png","188","test",",","image-keyboard-response","88","99694","0.0-3.0-1.42","true"
"999","ImagesDirect/VL90.png","190","test",".","image-keyboard-response","90","101205","0.0-3.0-1.43","true"
"1128","ImagesSoccer/VR105.png","190","test",".","image-keyboard-response","92","102854","0.0-3.0-1.44","true"
"1828","ImagesSoccer/VL92.5.png","190","test",".","image-keyboard-response","94","105192","0.0-3.0-1.45","true"
"964","ImagesSoccer/VR102.5.png","190","test",".","image-keyboard-response","96","106671","0.0-3.0-1.46","true"
"760","ImagesTennis/TR95.png","188","test",",","image-keyboard-response","98","107933","0.0-3.0-1.47","true"
"809","ImagesTennis/TR102.5.png","190","test",".","image-keyboard-response","100","109262","0.0-3.0-1.48","true"
"681","ImagesSoccer/VL110.png","188","test",",","image-keyboard-response","102","110456","0.0-3.0-1.49","true"
"743","ImagesTennis/TR100.png","188","test",".","image-keyboard-response","104","111718","0.0-3.0-1.50","false"
"1260","ImagesSoccer/VL90.png","190","test",".","image-keyboard-response","106","113494","0.0-3.0-1.51","true"
"1202","ImagesTennis/TL105.png","190","test",",","image-keyboard-response","108","115216","0.0-3.0-1.52","false"
"766","ImagesTennis/TL107.5.png","188","test",",","image-keyboard-response","110","116492","0.0-3.0-1.53","true"
"904","ImagesDirect/VL102.5.png","188","test",",","image-keyboard-response","112","117910","0.0-3.0-1.54","true"
"1118","ImagesDirect/VL90.png","190","test",".","image-keyboard-response","114","119541","0.0-3.0-1.55","true"
"1312","ImagesDirect/VL97.5.png","190","test",".","image-keyboard-response","116","121358","0.0-3.0-1.56","true"
"1230","ImagesSoccer/VL90.png","190","test",".","image-keyboard-response","118","123095","0.0-3.0-1.57","true"
"988","ImagesDirect/VL95.png","190","test",".","image-keyboard-response","120","124591","0.0-3.0-1.58","true"
"1459","ImagesDirect/VR92.5.png","188","test",",","image-keyboard-response","122","126565","0.0-3.0-1.59","true"
"1032","ImagesSoccer/VR95.png","190","test",",","image-keyboard-response","124","128108","0.0-3.0-1.60","false"
"864","ImagesTennis/TR100.png","188","test",".","image-keyboard-response","126","129479","0.0-3.0-1.61","false"
"786","ImagesTennis/TL95.png","190","test",".","image-keyboard-response","128","130781","0.0-3.0-1.62","true"
"711","ImagesTennis/TR92.5.png","188","test",",","image-keyboard-response","130","132004","0.0-3.0-1.63","true"
"1100","ImagesDirect/VR97.5.png","190","test",",","image-keyboard-response","132","133615","0.0-3.0-1.64","false"
"750","ImagesTennis/TL110.png","188","test",",","image-keyboard-response","134","134887","0.0-3.0-1.65","true"
"701","ImagesDirect/VR105.png","190","test",".","image-keyboard-response","136","136095","0.0-3.0-1.66","true"
"1343","ImagesDirect/VR102.5.png","190","test",".","image-keyboard-response","138","137959","0.0-3.0-1.67","true"
"622","ImagesSoccer/VR110.png","190","test",".","image-keyboard-response","140","139096","0.0-3.0-1.68","true"
"886","ImagesTennis/TL90.png","190","test",".","image-keyboard-response","142","140500","0.0-3.0-1.69","true"
"955","ImagesSoccer/VR100.png","190","test",".","image-keyboard-response","144","141958","0.0-3.0-1.70","true"
"1326","ImagesTennis/TR97.5.png","188","test",",","image-keyboard-response","146","143788","0.0-3.0-1.71","true"
"1324","ImagesSoccer/VR90.png","188","test",",","image-keyboard-response","148","145630","0.0-3.0-1.72","true"
"2798","ImagesTennis/TR105.png","188","test",".","image-keyboard-response","150","148941","0.0-3.0-1.73","false"
"870","ImagesSoccer/VL95.png","188","test",".","image-keyboard-response","152","150316","0.0-3.0-1.74","false"
"1564","ImagesDirect/VR95.png","190","test",",","image-keyboard-response","154","152391","0.0-3.0-1.75","false"
"943","ImagesTennis/TR110.png","190","test",".","image-keyboard-response","156","153846","0.0-3.0-1.76","true"
"823","ImagesTennis/TL105.png","188","test",",","image-keyboard-response","158","155187","0.0-3.0-1.77","true"
"772","ImagesSoccer/VL110.png","188","test",",","image-keyboard-response","160","156478","0.0-3.0-1.78","true"
"909","ImagesTennis/TL97.5.png","188","test",".","image-keyboard-response","162","157893","0.0-3.0-1.79","false"
"1746","ImagesSoccer/VL97.5.png","190","test",".","image-keyboard-response","164","160151","0.0-3.0-1.80","true"
"766","ImagesSoccer/VR107.5.png","190","test",".","image-keyboard-response","166","161430","0.0-3.0-1.81","true"
"783","ImagesDirect/VR110.png","190","test",".","image-keyboard-response","168","162726","0.0-3.0-1.82","true"
"811","ImagesTennis/TR95.png","188","test",",","image-keyboard-response","170","164056","0.0-3.0-1.83","true"
"981","ImagesTennis/TL92.5.png","190","test",".","image-keyboard-response","172","165544","0.0-3.0-1.84","true"
"854","ImagesTennis/TR90.png","188","test",",","image-keyboard-response","174","166918","0.0-3.0-1.85","true"
"771","ImagesTennis/TL102.5.png","190","test",",","image-keyboard-response","176","168206","0.0-3.0-1.86","false"
"1020","ImagesTennis/TL100.png","188","test",".","image-keyboard-response","178","169732","0.0-3.0-1.87","false"
"830","ImagesDirect/VL110.png","188","test",",","image-keyboard-response","180","171085","0.0-3.0-1.88","true"
"795","ImagesDirect/VL100.png","188","test",".","image-keyboard-response","182","172389","0.0-3.0-1.89","false"
"813","ImagesDirect/VR107.5.png","190","test",".","image-keyboard-response","184","173709","0.0-3.0-1.90","true"
"872","ImagesDirect/VL107.5.png","188","test",",","image-keyboard-response","186","175086","0.0-3.0-1.91","true"
"813","ImagesDirect/VL105.png","188","test",",","image-keyboard-response","188","176407","0.0-3.0-1.92","true"
"1501","ImagesDirect/VR90.png","188","test",",","image-keyboard-response","190","178427","0.0-3.0-1.93","true"
"923","ImagesTennis/TR107.5.png","190","test",".","image-keyboard-response","192","179856","0.0-3.0-1.94","true"
"776","ImagesSoccer/VL107.5.png","188","test",",","image-keyboard-response","194","181151","0.0-3.0-1.95","true"
"785","ImagesSoccer/VR105.png","190","test",".","image-keyboard-response","196","182438","0.0-3.0-1.96","true"
"775","ImagesSoccer/VL102.5.png","188","test",",","image-keyboard-response","198","183729","0.0-3.0-1.97","true"
"955","ImagesSoccer/VR92.5.png","188","test",",","image-keyboard-response","200","185189","0.0-3.0-1.98","true"
"1328","ImagesSoccer/VL92.5.png","190","test",".","image-keyboard-response","202","187022","0.0-3.0-1.99","true"
"2926","ImagesDirect/VL92.5.png","188","test",".","image-keyboard-response","204","190461","0.0-3.0-1.100","false"
"1110","ImagesDirect/VR100.png","190","test",".","image-keyboard-response","206","192086","0.0-3.0-1.101","true"
"849","ImagesSoccer/VR102.5.png","190","test",".","image-keyboard-response","208","193447","0.0-3.0-1.102","true"
"799","ImagesSoccer/VL100.png","188","test",".","image-keyboard-response","210","194766","0.0-3.0-1.103","false"
"821","ImagesTennis/TL107.5.png","188","test",",","image-keyboard-response","212","196094","0.0-3.0-1.104","true"
"1179","ImagesSoccer/VR97.5.png","190","test",",","image-keyboard-response","214","197782","0.0-3.0-1.105","false"
"1944","ImagesTennis/TR102.5.png","190","test",".","image-keyboard-response","216","200247","0.0-3.0-1.106","true"
"786","ImagesSoccer/VL105.png","188","test",",","image-keyboard-response","218","201550","0.0-3.0-1.107","true"
"864","ImagesTennis/TL92.5.png","190","test",".","image-keyboard-response","220","202928","0.0-3.0-1.108","true"
"1566","ImagesDirect/VL95.png","190","test",".","image-keyboard-response","222","205006","0.0-3.0-1.109","true"
"915","ImagesTennis/TL95.png","190","test",".","image-keyboard-response","224","206439","0.0-3.0-1.110","true"
"801","ImagesTennis/TL105.png","188","test",",","image-keyboard-response","226","207742","0.0-3.0-1.111","true"
"974","ImagesDirect/VL107.5.png","188","test",",","image-keyboard-response","228","209238","0.0-3.0-1.112","true"
"1040","ImagesTennis/TL102.5.png","188","test",",","image-keyboard-response","230","210783","0.0-3.0-1.113","true"
"762","ImagesDirect/VR105.png","190","test",".","image-keyboard-response","232","212056","0.0-3.0-1.114","true"
"1225","ImagesSoccer/VL100.png","188","test",".","image-keyboard-response","234","213798","0.0-3.0-1.115","false"
"743","ImagesSoccer/VR110.png","190","test",".","image-keyboard-response","236","215047","0.0-3.0-1.116","true"
"819","ImagesTennis/TR95.png","188","test",",","image-keyboard-response","238","216382","0.0-3.0-1.117","true"
"818","ImagesTennis/TR100.png","188","test",".","image-keyboard-response","240","217703","0.0-3.0-1.118","false"
"845","ImagesDirect/VR110.png","190","test",".","image-keyboard-response","242","219069","0.0-3.0-1.119","true"
"1247","ImagesSoccer/VL92.5.png","190","test",".","image-keyboard-response","244","220831","0.0-3.0-1.120","true"
"1055","ImagesSoccer/VR107.5.png","190","test",".","image-keyboard-response","246","222399","0.0-3.0-1.121","true"
"1573","ImagesTennis/TL107.5.png","188","test",",","image-keyboard-response","248","224477","0.0-3.0-1.122","true"
"1342","ImagesSoccer/VL95.png","190","test",".","image-keyboard-response","250","226327","0.0-3.0-1.123","true"
"1129","ImagesTennis/TL97.5.png","190","test",".","image-keyboard-response","252","227975","0.0-3.0-1.124","true"
"1004","ImagesSoccer/VR95.png","188","test",",","image-keyboard-response","254","229489","0.0-3.0-1.125","true"
"2074","ImagesDirect/VR95.png","190","test",",","image-keyboard-response","256","232078","0.0-3.0-1.126","false"
"1468","ImagesSoccer/VL102.5.png","188","test",",","image-keyboard-response","258","234064","0.0-3.0-1.127","true"
"973","ImagesDirect/VR107.5.png","190","test",".","image-keyboard-response","260","235558","0.0-3.0-1.128","true"
"856","ImagesTennis/TL110.png","188","test",",","image-keyboard-response","262","236919","0.0-3.0-1.129","true"
"791","ImagesSoccer/VL107.5.png","188","test",",","image-keyboard-response","264","238214","0.0-3.0-1.130","true"
"1852","ImagesTennis/TR102.5.png","188","test",".","image-keyboard-response","266","240576","0.0-3.0-1.131","false"
"1250","ImagesSoccer/VR90.png","188","test",",","image-keyboard-response","268","242335","0.0-3.0-1.132","true"
"985","ImagesDirect/VL90.png","190","test",".","image-keyboard-response","270","243839","0.0-3.0-1.133","true"
"1190","ImagesSoccer/VR102.5.png","190","test",".","image-keyboard-response","272","245534","0.0-3.0-1.134","true"
"816","ImagesSoccer/VR100.png","190","test",".","image-keyboard-response","274","246871","0.0-3.0-1.135","true"
"954","ImagesTennis/TR110.png","190","test",".","image-keyboard-response","276","248327","0.0-3.0-1.136","true"
"724","ImagesSoccer/VL110.png","188","test",",","image-keyboard-response","278","249559","0.0-3.0-1.137","true"
"1100","ImagesDirect/VR90.png","188","test",",","image-keyboard-response","280","251176","0.0-3.0-1.138","true"
"1041","ImagesTennis/TR92.5.png","188","test",",","image-keyboard-response","282","252736","0.0-3.0-1.139","true"
"1618","ImagesDirect/VL97.5.png","190","test",".","image-keyboard-response","284","254872","0.0-3.0-1.140","true"
"1719","ImagesDirect/VR92.5.png","188","test",",","image-keyboard-response","286","257093","0.0-3.0-1.141","true"
"1264","ImagesTennis/TR97.5.png","188","test",",","image-keyboard-response","288","258879","0.0-3.0-1.142","true"
"836","ImagesSoccer/VL90.png","190","test",".","image-keyboard-response","290","260231","0.0-3.0-1.143","true"
"832","ImagesTennis/TR107.5.png","190","test",".","image-keyboard-response","292","261566","0.0-3.0-1.144","true"
"845","ImagesDirect/VR102.5.png","190","test",".","image-keyboard-response","294","262919","0.0-3.0-1.145","true"
"965","ImagesTennis/TR105.png","190","test",".","image-keyboard-response","296","264399","0.0-3.0-1.146","true"
"2134","ImagesTennis/TL100.png","190","test",".","image-keyboard-response","298","267039","0.0-3.0-1.147","true"
"766","ImagesSoccer/VR97.5.png","190","test",",","image-keyboard-response","300","268310","0.0-3.0-1.148","false"
"808","ImagesDirect/VL102.5.png","188","test",",","image-keyboard-response","302","269632","0.0-3.0-1.149","true"
"2406","ImagesSoccer/VL97.5.png","190","test",".","image-keyboard-response","304","272549","0.0-3.0-1.150","true"
"732","ImagesDirect/VL105.png","188","test",",","image-keyboard-response","306","273798","0.0-3.0-1.151","true"
"747","ImagesSoccer/VR105.png","190","test",".","image-keyboard-response","308","275063","0.0-3.0-1.152","true"
"775","ImagesTennis/TL90.png","190","test",".","image-keyboard-response","310","276350","0.0-3.0-1.153","true"
"784","ImagesDirect/VL100.png","188","test",".","image-keyboard-response","312","277640","0.0-3.0-1.154","false"
"703","ImagesSoccer/VL105.png","188","test",",","image-keyboard-response","314","278858","0.0-3.0-1.155","true"
"1152","ImagesSoccer/VR92.5.png","188","test",",","image-keyboard-response","316","280526","0.0-3.0-1.156","true"
"1213","ImagesDirect/VL92.5.png","190","test",".","image-keyboard-response","318","282248","0.0-3.0-1.157","true"
"3259","ImagesDirect/VR97.5.png","188","test",",","image-keyboard-response","320","286016","0.0-3.0-1.158","true"
"1438","ImagesDirect/VR100.png","190","test",".","image-keyboard-response","322","287974","0.0-3.0-1.159","true"
"864","ImagesDirect/VL110.png","188","test",",","image-keyboard-response","324","289350","0.0-3.0-1.160","true"
"822","ImagesTennis/TR90.png","188","test",",","image-keyboard-response","326","290677","0.0-3.0-1.161","true"
"772","ImagesDirect/VL110.png","188","test",",","image-keyboard-response","328","291966","0.0-3.0-1.162","true"
"850","ImagesTennis/TR107.5.png","190","test",".","image-keyboard-response","330","293326","0.0-3.0-1.163","true"
"1275","ImagesTennis/TL102.5.png","188","test",",","image-keyboard-response","332","295112","0.0-3.0-1.164","true"
"804","ImagesTennis/TL100.png","188","test",".","image-keyboard-response","334","296439","0.0-3.0-1.165","false"
"916","ImagesDirect/VL95.png","188","test",".","image-keyboard-response","336","297873","0.0-3.0-1.166","false"
"1456","ImagesSoccer/VR92.5.png","188","test",",","image-keyboard-response","338","299830","0.0-3.0-1.167","true"
"695","ImagesTennis/TR92.5.png","188","test",",","image-keyboard-response","340","301030","0.0-3.0-1.168","true"
"2517","ImagesDirect/VR95.png","188","test",",","image-keyboard-response","342","304062","0.0-3.0-1.169","true"
"783","ImagesDirect/VL107.5.png","188","test",",","image-keyboard-response","344","305360","0.0-3.0-1.170","true"
"1284","ImagesTennis/TL97.5.png","190","test",".","image-keyboard-response","346","307160","0.0-3.0-1.171","true"
"784","ImagesSoccer/VR102.5.png","190","test",".","image-keyboard-response","348","308449","0.0-3.0-1.172","true"
"737","ImagesSoccer/VR110.png","190","test",".","image-keyboard-response","350","309703","0.0-3.0-1.173","true"
"1441","ImagesSoccer/VL97.5.png","190","test",".","image-keyboard-response","352","311662","0.0-3.0-1.174","true"
"1171","ImagesSoccer/VL90.png","190","test",".","image-keyboard-response","354","313335","0.0-3.0-1.175","true"
"817","ImagesDirect/VR100.png","190","test",".","image-keyboard-response","356","314664","0.0-3.0-1.176","true"
"752","ImagesDirect/VR102.5.png","190","test",".","image-keyboard-response","358","315921","0.0-3.0-1.177","true"
"1677","ImagesTennis/TR105.png","190","test",".","image-keyboard-response","360","318102","0.0-3.0-1.178","true"
"823","ImagesSoccer/VR90.png","188","test",",","image-keyboard-response","362","319430","0.0-3.0-1.179","true"
"861","ImagesSoccer/VR95.png","190","test",",","image-keyboard-response","364","320808","0.0-3.0-1.180","false"
"825","ImagesSoccer/VL102.5.png","188","test",",","image-keyboard-response","366","322150","0.0-3.0-1.181","true"
"935","ImagesSoccer/VR100.png","190","test",".","image-keyboard-response","368","323600","0.0-3.0-1.182","true"
"1525","ImagesDirect/VL100.png","190","test",".","image-keyboard-response","370","325630","0.0-3.0-1.183","true"
"883","ImagesTennis/TR90.png","188","test",",","image-keyboard-response","372","327030","0.0-3.0-1.184","true"
"1301","ImagesDirect/VR90.png","188","test",",","image-keyboard-response","374","328847","0.0-3.0-1.185","true"
"1074","ImagesTennis/TR95.png","188","test",",","image-keyboard-response","376","330439","0.0-3.0-1.186","true"
"941","ImagesSoccer/VR107.5.png","190","test",".","image-keyboard-response","378","331895","0.0-3.0-1.187","true"
"945","ImagesTennis/TL92.5.png","190","test",".","image-keyboard-response","380","333360","0.0-3.0-1.188","true"
"818","ImagesDirect/VL102.5.png","188","test",",","image-keyboard-response","382","334694","0.0-3.0-1.189","true"
"847","ImagesSoccer/VL105.png","188","test",",","image-keyboard-response","384","336062","0.0-3.0-1.190","true"
"864","ImagesTennis/TL90.png","190","test",".","image-keyboard-response","386","337438","0.0-3.0-1.191","true"
"824","ImagesTennis/TL95.png","190","test",".","image-keyboard-response","388","338782","0.0-3.0-1.192","true"
"799","ImagesSoccer/VL107.5.png","188","test",",","image-keyboard-response","390","340095","0.0-3.0-1.193","true"
"842","ImagesTennis/TL107.5.png","188","test",",","image-keyboard-response","392","341446","0.0-3.0-1.194","true"
"712","ImagesDirect/VR110.png","190","test",".","image-keyboard-response","394","342678","0.0-3.0-1.195","true"
"748","ImagesSoccer/VL95.png","188","test",".","image-keyboard-response","396","343934","0.0-3.0-1.196","false"
"1530","ImagesSoccer/VL100.png","190","test",".","image-keyboard-response","398","345975","0.0-3.0-1.197","true"
"723","ImagesSoccer/VR105.png","190","test",".","image-keyboard-response","400","347208","0.0-3.0-1.198","true"
"771","ImagesDirect/VR105.png","190","test",".","image-keyboard-response","402","348497","0.0-3.0-1.199","true"
"705","ImagesDirect/VL97.5.png","188","test",".","image-keyboard-response","404","349711","0.0-3.0-1.200","false"
"1125","ImagesDirect/VR92.5.png","188","test",",","image-keyboard-response","406","351352","0.0-3.0-1.201","true"
"1214","ImagesTennis/TL110.png","188","test",",","image-keyboard-response","408","353078","0.0-3.0-1.202","true"
"1733","ImagesTennis/TR102.5.png","190","test",".","image-keyboard-response","410","355319","0.0-3.0-1.203","true"
"1029","ImagesDirect/VR97.5.png","190","test",",","image-keyboard-response","412","356854","0.0-3.0-1.204","false"
"1016","ImagesSoccer/VL92.5.png","190","test",".","image-keyboard-response","414","358377","0.0-3.0-1.205","true"
"863","ImagesTennis/TR100.png","188","test",".","image-keyboard-response","416","359759","0.0-3.0-1.206","false"
"764","ImagesTennis/TR97.5.png","188","test",",","image-keyboard-response","418","361039","0.0-3.0-1.207","true"
"731","ImagesDirect/VL105.png","188","test",",","image-keyboard-response","420","362287","0.0-3.0-1.208","true"
"1420","ImagesSoccer/VR97.5.png","188","test",",","image-keyboard-response","422","364217","0.0-3.0-1.209","true"
"1322","ImagesDirect/VL92.5.png","190","test",".","image-keyboard-response","424","366046","0.0-3.0-1.210","true"
"816","ImagesDirect/VL90.png","190","test",".","image-keyboard-response","426","367382","0.0-3.0-1.211","true"
"777","ImagesSoccer/VL110.png","188","test",",","image-keyboard-response","428","368662","0.0-3.0-1.212","true"
"782","ImagesDirect/VR107.5.png","190","test",".","image-keyboard-response","430","369951","0.0-3.0-1.213","true"
"757","ImagesTennis/TR110.png","190","test",".","image-keyboard-response","432","371223","0.0-3.0-1.214","true"
"888","ImagesTennis/TL105.png","188","test",",","image-keyboard-response","434","372614","0.0-3.0-1.215","true"
"1777","ImagesTennis/TL105.png","188","test",",","image-keyboard-response","436","374904","0.0-3.0-1.216","true"
"927","ImagesTennis/TR90.png","188","test",",","image-keyboard-response","438","376342","0.0-3.0-1.217","true"
"1360","ImagesDirect/VR95.png","190","test",",","image-keyboard-response","440","378216","0.0-3.0-1.218","false"
"728","ImagesTennis/TR107.5.png","190","test",".","image-keyboard-response","442","379463","0.0-3.0-1.219","true"
"937","ImagesSoccer/VR97.5.png","190","test",",","image-keyboard-response","444","380912","0.0-3.0-1.220","false"
"1359","ImagesSoccer/VL97.5.png","190","test",".","image-keyboard-response","446","382775","0.0-3.0-1.221","true"
"706","ImagesTennis/TL95.png","190","test",".","image-keyboard-response","448","383992","0.0-3.0-1.222","true"
"759","ImagesDirect/VR107.5.png","190","test",".","image-keyboard-response","450","385265","0.0-3.0-1.223","true"
"1414","ImagesSoccer/VL92.5.png","190","test",".","image-keyboard-response","452","387200","0.0-3.0-1.224","true"
"829","ImagesDirect/VR105.png","190","test",".","image-keyboard-response","454","388537","0.0-3.0-1.225","true"
"705","ImagesSoccer/VL107.5.png","188","test",",","image-keyboard-response","456","389751","0.0-3.0-1.226","true"
"719","ImagesSoccer/VR110.png","190","test",".","image-keyboard-response","458","390986","0.0-3.0-1.227","true"
"1742","ImagesSoccer/VR95.png","188","test",",","image-keyboard-response","460","393247","0.0-3.0-1.228","true"
"1082","ImagesDirect/VR90.png","188","test",",","image-keyboard-response","462","394839","0.0-3.0-1.229","true"
"686","ImagesDirect/VL110.png","188","test",",","image-keyboard-response","464","396031","0.0-3.0-1.230","true"
"806","ImagesSoccer/VL90.png","190","test",".","image-keyboard-response","466","397353","0.0-3.0-1.231","true"
"1615","ImagesTennis/TL102.5.png","190","test",",","image-keyboard-response","468","399471","0.0-3.0-1.232","false"
"696","ImagesDirect/VL102.5.png","188","test",",","image-keyboard-response","470","400671","0.0-3.0-1.233","true"
"696","ImagesDirect/VL105.png","188","test",",","image-keyboard-response","472","401871","0.0-3.0-1.234","true"
"968","ImagesTennis/TL100.png","190","test",".","image-keyboard-response","474","403352","0.0-3.0-1.235","true"
"1197","ImagesSoccer/VR92.5.png","188","test",",","image-keyboard-response","476","405063","0.0-3.0-1.236","true"
"1425","ImagesDirect/VR92.5.png","188","test",",","image-keyboard-response","478","406992","0.0-3.0-1.237","true"
"3552","ImagesSoccer/VL100.png","188","test",".","image-keyboard-response","480","411058","0.0-3.0-1.238","false"
"715","ImagesTennis/TR92.5.png","188","test",",","image-keyboard-response","482","412281","0.0-3.0-1.239","true"
"663","ImagesDirect/VR102.5.png","190","test",".","image-keyboard-response","484","413449","0.0-3.0-1.240","true"
"721","ImagesSoccer/VL105.png","188","test",",","image-keyboard-response","486","414696","0.0-3.0-1.241","true"
"712","ImagesDirect/VR100.png","190","test",".","image-keyboard-response","488","415929","0.0-3.0-1.242","true"
"713","ImagesDirect/VL90.png","188","test",".","image-keyboard-response","490","417151","0.0-3.0-1.243","false"
"872","ImagesSoccer/VR105.png","190","test",".","image-keyboard-response","492","418527","0.0-3.0-1.244","true"
"823","ImagesTennis/TL92.5.png","190","test",".","image-keyboard-response","494","419859","0.0-3.0-1.245","true"
"761","ImagesSoccer/VR90.png","188","test",",","image-keyboard-response","496","421138","0.0-3.0-1.246","true"
"753","ImagesSoccer/VL110.png","188","test",",","image-keyboard-response","498","422409","0.0-3.0-1.247","true"
"723","ImagesDirect/VL107.5.png","188","test",",","image-keyboard-response","500","423649","0.0-3.0-1.248","true"
"630","ImagesSoccer/VR102.5.png","190","test",".","image-keyboard-response","502","424801","0.0-3.0-1.249","true"
"710","ImagesTennis/TL110.png","188","test",",","image-keyboard-response","504","426016","0.0-3.0-1.250","true"
"721","ImagesDirect/VL97.5.png","190","test",".","image-keyboard-response","506","427249","0.0-3.0-1.251","true"
"2147","ImagesDirect/VL95.png","188","test",".","image-keyboard-response","508","429904","0.0-3.0-1.252","false"
"912","ImagesDirect/VR97.5.png","190","test",",","image-keyboard-response","510","431329","0.0-3.0-1.253","false"
"1537","ImagesTennis/TR100.png","188","test",".","image-keyboard-response","512","433385","0.0-3.0-1.254","false"
"702","ImagesTennis/TL90.png","190","test",".","image-keyboard-response","514","434610","0.0-3.0-1.255","true"
"1396","ImagesTennis/TR105.png","190","test",".","image-keyboard-response","516","436521","0.0-3.0-1.256","true"
"797","ImagesSoccer/VR100.png","190","test",".","image-keyboard-response","518","437825","0.0-3.0-1.257","true"
"1262","ImagesDirect/VL92.5.png","190","test",".","image-keyboard-response","520","439610","0.0-3.0-1.258","true"
"738","ImagesDirect/VL100.png","188","test",".","image-keyboard-response","522","440864","0.0-3.0-1.259","false"
"793","ImagesSoccer/VL102.5.png","188","test",",","image-keyboard-response","524","442180","0.0-3.0-1.260","true"
"1618","ImagesTennis/TR102.5.png","188","test",".","image-keyboard-response","526","444303","0.0-3.0-1.261","false"
"865","ImagesDirect/VR110.png","190","test",".","image-keyboard-response","528","445680","0.0-3.0-1.262","true"
"1116","ImagesTennis/TR110.png","190","test",".","image-keyboard-response","530","447313","0.0-3.0-1.263","true"
"1174","ImagesSoccer/VR107.5.png","190","test",".","image-keyboard-response","532","448999","0.0-3.0-1.264","true"
"1581","ImagesTennis/TL97.5.png","190","test",".","image-keyboard-response","534","451089","0.0-3.0-1.265","true"
"3427","ImagesTennis/TR97.5.png","190","test",",","image-keyboard-response","536","455032","0.0-3.0-1.266","false"
"847","ImagesTennis/TR95.png","188","test",",","image-keyboard-response","538","456392","0.0-3.0-1.267","true"
"2838","ImagesSoccer/VL95.png","190","test",".","image-keyboard-response","540","459744","0.0-3.0-1.268","true"
"861","ImagesTennis/TL107.5.png","188","test",",","image-keyboard-response","542","461128","0.0-3.0-1.269","true"
"5161","ImagesCoins/10L105.png","188","test",",","image-keyboard-response","544","466801","0.0-4.0-1.0","true"
"1245","ImagesCoins/10R92.5.png","188","test",",","image-keyboard-response","546","468551","0.0-4.0-1.1","true"
"786","ImagesCoins/10R107.5.png","190","test",".","image-keyboard-response","548","469855","0.0-4.0-1.2","true"
"1393","ImagesCoins/10R105.png","190","test",".","image-keyboard-response","550","471770","0.0-4.0-1.3","true"
"1034","ImagesCoins/10L90.png","190","test",".","image-keyboard-response","552","473320","0.0-4.0-1.4","true"
"1863","ImagesCoins/10R102.5.png","190","test",".","image-keyboard-response","554","475689","0.0-4.0-1.5","true"
"3582","ImagesCoins/10L97.5.png","190","test",".","image-keyboard-response","556","479779","0.0-4.0-1.6","true"
"4618","ImagesCoins/10L100.png","190","test",".","image-keyboard-response","558","484915","0.0-4.0-1.7","true"
"1094","ImagesCoins/10L95.png","190","test",".","image-keyboard-response","560","486521","0.0-4.0-1.8","true"
"970","ImagesCoins/10L92.5.png","190","test",".","image-keyboard-response","562","488007","0.0-4.0-1.9","true"
"1098","ImagesCoins/10R90.png","188","test",",","image-keyboard-response","564","489617","0.0-4.0-1.10","true"
"5943","ImagesCoins/10R95.png","188","test",",","image-keyboard-response","566","496080","0.0-4.0-1.11","true"
"1218","ImagesCoins/10L102.5.png","188","test",",","image-keyboard-response","568","497817","0.0-4.0-1.12","true"
"933","ImagesCoins/10R110.png","190","test",".","image-keyboard-response","570","499265","0.0-4.0-1.13","true"
"896","ImagesCoins/10R100.png","188","test",".","image-keyboard-response","572","500672","0.0-4.0-1.14","false"
"865","ImagesCoins/10L110.png","188","test",",","image-keyboard-response","574","502041","0.0-4.0-1.15","true"
"838","ImagesCoins/10L107.5.png","188","test",",","image-keyboard-response","576","503385","0.0-4.0-1.16","true"
"3747","ImagesCoins/10R97.5.png","188","test",",","image-keyboard-response","578","507655","0.0-4.0-1.17","true"
"3470","ImagesCoins/10L100.png","190","test",".","image-keyboard-response","580","511639","0.0-4.0-1.18","true"
"3276","ImagesCoins/10L95.png","190","test",".","image-keyboard-response","582","515423","0.0-4.0-1.19","true"
"801","ImagesCoins/10L90.png","190","test",".","image-keyboard-response","584","516728","0.0-4.0-1.20","true"
"761","ImagesCoins/10R90.png","188","test",",","image-keyboard-response","586","518007","0.0-4.0-1.21","true"
"961","ImagesCoins/10L105.png","188","test",",","image-keyboard-response","588","519490","0.0-4.0-1.22","true"
"1298","ImagesCoins/10L92.5.png","190","test",".","image-keyboard-response","590","521296","0.0-4.0-1.23","true"
"1602","ImagesCoins/10R102.5.png","190","test",".","image-keyboard-response","592","523417","0.0-4.0-1.24","true"
"1122","ImagesCoins/10R105.png","190","test",".","image-keyboard-response","594","525060","0.0-4.0-1.25","true"
"1424","ImagesCoins/10R95.png","188","test",",","image-keyboard-response","596","527000","0.0-4.0-1.26","true"
"1421","ImagesCoins/10L102.5.png","188","test",",","image-keyboard-response","598","528937","0.0-4.0-1.27","true"
"670","ImagesCoins/10L107.5.png","188","test",",","image-keyboard-response","600","530128","0.0-4.0-1.28","true"
"701","ImagesCoins/10R107.5.png","190","test",".","image-keyboard-response","602","531337","0.0-4.0-1.29","true"
"865","ImagesCoins/10L110.png","188","test",",","image-keyboard-response","604","532713","0.0-4.0-1.30","true"
"1213","ImagesCoins/10R92.5.png","188","test",",","image-keyboard-response","606","534440","0.0-4.0-1.31","true"
"3450","ImagesCoins/10R97.5.png","188","test",",","image-keyboard-response","608","538396","0.0-4.0-1.32","true"
"727","ImagesCoins/10R110.png","190","test",".","image-keyboard-response","610","539633","0.0-4.0-1.33","true"
"1833","ImagesCoins/10L97.5.png","190","test",".","image-keyboard-response","612","541979","0.0-4.0-1.34","true"
"3795","ImagesCoins/10R100.png","190","test",".","image-keyboard-response","614","546283","0.0-4.0-1.35","true"
"848","ImagesCoins/10R92.5.png","188","test",",","image-keyboard-response","616","547635","0.0-4.0-1.36","true"
"752","ImagesCoins/10L90.png","190","test",".","image-keyboard-response","618","548899","0.0-4.0-1.37","true"
"938","ImagesCoins/10L105.png","188","test",",","image-keyboard-response","620","550344","0.0-4.0-1.38","true"
"791","ImagesCoins/10L100.png","188","test",".","image-keyboard-response","622","551648","0.0-4.0-1.39","false"
"827","ImagesCoins/10L110.png","188","test",",","image-keyboard-response","624","552985","0.0-4.0-1.40","true"
"1058","ImagesCoins/10R90.png","188","test",",","image-keyboard-response","626","554555","0.0-4.0-1.41","true"
"1199","ImagesCoins/10R102.5.png","190","test",".","image-keyboard-response","628","556258","0.0-4.0-1.42","true"
"1007","ImagesCoins/10L102.5.png","188","test",",","image-keyboard-response","630","557786","0.0-4.0-1.43","true"
"1745","ImagesCoins/10R100.png","190","test",".","image-keyboard-response","632","560041","0.0-4.0-1.44","true"
"1287","ImagesCoins/10L92.5.png","190","test",".","image-keyboard-response","634","561833","0.0-4.0-1.45","true"
"1671","ImagesCoins/10L97.5.png","190","test",".","image-keyboard-response","636","564019","0.0-4.0-1.46","true"
"954","ImagesCoins/10R110.png","190","test",".","image-keyboard-response","638","565482","0.0-4.0-1.47","true"
"664","ImagesCoins/10R107.5.png","190","test",".","image-keyboard-response","640","566651","0.0-4.0-1.48","true"
"1048","ImagesCoins/10L107.5.png","188","test",",","image-keyboard-response","642","568219","0.0-4.0-1.49","true"
"1412","ImagesCoins/10R105.png","190","test",".","image-keyboard-response","644","570137","0.0-4.0-1.50","true"
"1171","ImagesCoins/10R95.png","188","test",",","image-keyboard-response","646","571820","0.0-4.0-1.51","true"
"2702","ImagesCoins/10R97.5.png","188","test",",","image-keyboard-response","648","575040","0.0-4.0-1.52","true"
"1701","ImagesCoins/10L95.png","190","test",".","image-keyboard-response","650","577259","0.0-4.0-1.53","true"
"729","ImagesCoins/10R95.png","188","test",",","image-keyboard-response","652","578508","0.0-4.0-1.54","true"
"3233","ImagesCoins/10L100.png","188","test",".","image-keyboard-response","654","582249","0.0-4.0-1.55","false"
"818","ImagesCoins/10R105.png","190","test",".","image-keyboard-response","656","583586","0.0-4.0-1.56","true"
"744","ImagesCoins/10L102.5.png","188","test",",","image-keyboard-response","658","584851","0.0-4.0-1.57","true"
"1562","ImagesCoins/10R102.5.png","190","test",".","image-keyboard-response","660","586928","0.0-4.0-1.58","true"
"3923","ImagesCoins/10L97.5.png","190","test",".","image-keyboard-response","662","591369","0.0-4.0-1.59","true"
"677","ImagesCoins/10R90.png","188","test",",","image-keyboard-response","664","592553","0.0-4.0-1.60","true"
"1176","ImagesCoins/10R100.png","190","test",".","image-keyboard-response","666","594234","0.0-4.0-1.61","true"
"898","ImagesCoins/10L110.png","188","test",",","image-keyboard-response","668","595635","0.0-4.0-1.62","true"
"784","ImagesCoins/10R110.png","190","test",".","image-keyboard-response","670","596921","0.0-4.0-1.63","true"
"1583","ImagesCoins/10L105.png","190","test",",","image-keyboard-response","672","599010","0.0-4.0-1.64","false"
"3533","ImagesCoins/10R97.5.png","190","test",",","image-keyboard-response","674","603050","0.0-4.0-1.65","false"
"732","ImagesCoins/10L107.5.png","188","test",",","image-keyboard-response","676","604289","0.0-4.0-1.66","true"
"716","ImagesCoins/10L90.png","190","test",".","image-keyboard-response","678","605514","0.0-4.0-1.67","true"
"1192","ImagesCoins/10L95.png","190","test",".","image-keyboard-response","680","607209","0.0-4.0-1.68","true"
"1165","ImagesCoins/10R107.5.png","190","test",".","image-keyboard-response","682","608882","0.0-4.0-1.69","true"
"1060","ImagesCoins/10L92.5.png","190","test",".","image-keyboard-response","684","610457","0.0-4.0-1.70","true"
"863","ImagesCoins/10R92.5.png","188","test",",","image-keyboard-response","686","611841","0.0-4.0-1.71","true"
"1667","ImagesCoins/10L100.png","190","test",".","image-keyboard-response","688","614025","0.0-4.0-1.72","true"
"2937","ImagesCoins/10L102.5.png","190","test",",","image-keyboard-response","690","617474","0.0-4.0-1.73","false"
"1525","ImagesCoins/10R100.png","190","test",".","image-keyboard-response","692","619513","0.0-4.0-1.74","true"
"1340","ImagesCoins/10R97.5.png","188","test",",","image-keyboard-response","694","621369","0.0-4.0-1.75","true"
"779","ImagesCoins/10R92.5.png","188","test",",","image-keyboard-response","696","622667","0.0-4.0-1.76","true"
"864","ImagesCoins/10R105.png","190","test",".","image-keyboard-response","698","624050","0.0-4.0-1.77","true"
"963","ImagesCoins/10L95.png","190","test",".","image-keyboard-response","700","625531","0.0-4.0-1.78","true"
"1097","ImagesCoins/10R95.png","188","test",",","image-keyboard-response","702","627144","0.0-4.0-1.79","true"
"2345","ImagesCoins/10L97.5.png","190","test",".","image-keyboard-response","704","629995","0.0-4.0-1.80","true"
"901","ImagesCoins/10L90.png","190","test",".","image-keyboard-response","706","631409","0.0-4.0-1.81","true"
"1017","ImagesCoins/10L110.png","188","test",",","image-keyboard-response","708","632945","0.0-4.0-1.82","true"
"734","ImagesCoins/10R107.5.png","190","test",".","image-keyboard-response","710","634202","0.0-4.0-1.83","true"
"917","ImagesCoins/10L105.png","188","test",",","image-keyboard-response","712","635625","0.0-4.0-1.84","true"
"705","ImagesCoins/10R102.5.png","190","test",".","image-keyboard-response","714","636843","0.0-4.0-1.85","true"
"723","ImagesCoins/10L107.5.png","188","test",",","image-keyboard-response","716","638083","0.0-4.0-1.86","true"
"765","ImagesCoins/10R90.png","188","test",",","image-keyboard-response","718","639354","0.0-4.0-1.87","true"
"901","ImagesCoins/10R110.png","190","test",".","image-keyboard-response","720","640772","0.0-4.0-1.88","true"
"819","ImagesCoins/10L92.5.png","190","test",".","image-keyboard-response","722","642107","0.0-4.0-1.89","true"
