"rt","stimulus","key_press","test_part","correct_response","trial_type","trial_index","time_elapsed","internal_node_id","correct"
"4039","ImagesCoins/10L92.5.png","190","test",".","image-keyboard-response","4","25136","0.0-3.0-1.0","true"
"5536","ImagesCoins/10R97.5.png","190","test",",","image-keyboard-response","6","31185","0.0-3.0-1.1","false"
"2195","ImagesCoins/10R90.png","188","test",",","image-keyboard-response","8","33894","0.0-3.0-1.2","true"
"2193","ImagesCoins/10R105.png","190","test",".","image-keyboard-response","10","36600","0.0-3.0-1.3","true"
"2094","ImagesCoins/10L107.5.png","188","test",",","image-keyboard-response","12","39201","0.0-3.0-1.4","true"
"2064","ImagesCoins/10L90.png","190","test",".","image-keyboard-response","14","41772","0.0-3.0-1.5","true"
"1549","ImagesCoins/10R110.png","190","test",".","image-keyboard-response","16","43839","0.0-3.0-1.6","true"
"2329","ImagesCoins/10R92.5.png","188","test",",","image-keyboard-response","18","46673","0.0-3.0-1.7","true"
"3725","ImagesCoins/10L100.png","190","test",".","image-keyboard-response","20","50901","0.0-3.0-1.8","true"
"1599","ImagesCoins/10R95.png","188","test",",","image-keyboard-response","22","53011","0.0-3.0-1.9","true"
"1589","ImagesCoins/10L102.5.png","188","test",",","image-keyboard-response","24","55115","0.0-3.0-1.10","true"
"1759","ImagesCoins/10L97.5.png","190","test",".","image-keyboard-response","26","57388","0.0-3.0-1.11","true"
"1441","ImagesCoins/10L95.png","190","test",".","image-keyboard-response","28","59339","0.0-3.0-1.12","true"
"1668","ImagesCoins/10R107.5.png","190","test",".","image-keyboard-response","30","61510","0.0-3.0-1.13","true"
"1405","ImagesCoins/10L110.png","188","test",",","image-keyboard-response","32","63430","0.0-3.0-1.14","true"
"1183","ImagesCoins/10R100.png","190","test",".","image-keyboard-response","34","65117","0.0-3.0-1.15","true"
"1984","ImagesCoins/10L105.png","188","test",",","image-keyboard-response","36","67609","0.0-3.0-1.16","true"
"1462","ImagesCoins/10R102.5.png","190","test",".","image-keyboard-response","38","69580","0.0-3.0-1.17","true"
"1126","ImagesCoins/10R107.5.png","190","test",".","image-keyboard-response","40","71212","0.0-3.0-1.18","true"
"879","ImagesCoins/10L107.5.png","188","test",",","image-keyboard-response","42","72599","0.0-3.0-1.19","true"
"3407","ImagesCoins/10R95.png","188","test",",","image-keyboard-response","44","76515","0.0-3.0-1.20","true"
"2663","ImagesCoins/10L102.5.png","188","test",",","image-keyboard-response","46","79685","0.0-3.0-1.21","true"
"1886","ImagesCoins/10R92.5.png","188","test",",","image-keyboard-response","48","82086","0.0-3.0-1.22","true"
"1027","ImagesCoins/10L110.png","188","test",",","image-keyboard-response","50","83626","0.0-3.0-1.23","true"
"1276","ImagesCoins/10R90.png","188","test",",","image-keyboard-response","52","85413","0.0-3.0-1.24","true"
"1140","ImagesCoins/10L90.png","190","test",".","image-keyboard-response","54","87063","0.0-3.0-1.25","true"
"3010","ImagesCoins/10L100.png","190","test",".","image-keyboard-response","56","90583","0.0-3.0-1.26","true"
"2008","ImagesCoins/10R110.png","190","test",".","image-keyboard-response","58","93103","0.0-3.0-1.27","true"
"2937","ImagesCoins/10L92.5.png","190","test",".","image-keyboard-response","60","96547","0.0-3.0-1.28","true"
"2777","ImagesCoins/10L95.png","190","test",".","image-keyboard-response","62","99839","0.0-3.0-1.29","true"
"4013","ImagesCoins/10L97.5.png","190","test",".","image-keyboard-response","64","104359","0.0-3.0-1.30","true"
"6916","ImagesCoins/10R97.5.png","188","test",",","image-keyboard-response","66","111784","0.0-3.0-1.31","true"
"4466","ImagesCoins/10R105.png","190","test",".","image-keyboard-response","68","116767","0.0-3.0-1.32","true"
"2410755","ImagesCoins/10R102.5.png","188","test",".","image-keyboard-response","70","2528042","0.0-3.0-1.33","false"
"3202","ImagesCoins/10L105.png","188","test",",","image-keyboard-response","72","2531761","0.0-3.0-1.34","true"
"4239","ImagesCoins/10R100.png","188","test",".","image-keyboard-response","74","2536507","0.0-3.0-1.35","false"
"3108","ImagesCoins/10R97.5.png","188","test",",","image-keyboard-response","76","2540130","0.0-3.0-1.36","true"
"2295","ImagesCoins/10R107.5.png","190","test",".","image-keyboard-response","78","2542936","0.0-3.0-1.37","true"
"4141","ImagesCoins/10L95.png","190","test",".","image-keyboard-response","80","2547582","0.0-3.0-1.38","true"
"1586","ImagesCoins/10R110.png","190","test",".","image-keyboard-response","82","2549681","0.0-3.0-1.39","true"
"2158","ImagesCoins/10R105.png","190","test",".","image-keyboard-response","84","2552351","0.0-3.0-1.40","true"
"5833","ImagesCoins/10L100.png","188","test",".","image-keyboard-response","86","2558692","0.0-3.0-1.41","false"
"2304","ImagesCoins/10L102.5.png","188","test",",","image-keyboard-response","88","2561501","0.0-3.0-1.42","true"
"6925","ImagesCoins/10R102.5.png","190","test",".","image-keyboard-response","90","2568933","0.0-3.0-1.43","true"
"1340","ImagesCoins/10L107.5.png","188","test",",","image-keyboard-response","92","2570794","0.0-3.0-1.44","true"
"1493","ImagesCoins/10L92.5.png","190","test",".","image-keyboard-response","94","2572795","0.0-3.0-1.45","true"
"1668","ImagesCoins/10L90.png","190","test",".","image-keyboard-response","96","2574972","0.0-3.0-1.46","true"
"6901","ImagesCoins/10L97.5.png","188","test",".","image-keyboard-response","98","2582385","0.0-3.0-1.47","false"
"1487","ImagesCoins/10L110.png","188","test",",","image-keyboard-response","100","2584392","0.0-3.0-1.48","true"
"3998","ImagesCoins/10L105.png","188","test",",","image-keyboard-response","102","2588902","0.0-3.0-1.49","true"
"3377","ImagesCoins/10R95.png","188","test",",","image-keyboard-response","104","2592785","0.0-3.0-1.50","true"
"1802","ImagesCoins/10R92.5.png","188","test",",","image-keyboard-response","106","2595095","0.0-3.0-1.51","true"
"4757","ImagesCoins/10R100.png","188","test",".","image-keyboard-response","108","2600367","0.0-3.0-1.52","false"
"1422","ImagesCoins/10R90.png","188","test",",","image-keyboard-response","110","2602300","0.0-3.0-1.53","true"
"2941","ImagesCoins/10R100.png","188","test",".","image-keyboard-response","112","2605753","0.0-3.0-1.54","false"
"1406","ImagesCoins/10R105.png","190","test",".","image-keyboard-response","114","2607667","0.0-3.0-1.55","true"
"1674","ImagesCoins/10L110.png","188","test",",","image-keyboard-response","116","2609854","0.0-3.0-1.56","true"
"4988","ImagesCoins/10L100.png","188","test",".","image-keyboard-response","118","2615353","0.0-3.0-1.57","false"
"1973","ImagesCoins/10R92.5.png","188","test",",","image-keyboard-response","120","2617843","0.0-3.0-1.58","true"
"3538","ImagesCoins/10R107.5.png","190","test",".","image-keyboard-response","122","2621887","0.0-3.0-1.59","true"
"2236","ImagesCoins/10L95.png","190","test",".","image-keyboard-response","124","2624638","0.0-3.0-1.60","true"
"7729","ImagesCoins/10L97.5.png","190","test",".","image-keyboard-response","126","2632882","0.0-3.0-1.61","true"
"1852","ImagesCoins/10R95.png","188","test",",","image-keyboard-response","128","2635239","0.0-3.0-1.62","true"
"2460","ImagesCoins/10R97.5.png","188","test",",","image-keyboard-response","130","2638215","0.0-3.0-1.63","true"
"1330","ImagesCoins/10R90.png","188","test",",","image-keyboard-response","132","2640055","0.0-3.0-1.64","true"
"4092","ImagesCoins/10R102.5.png","190","test",".","image-keyboard-response","134","2644653","0.0-3.0-1.65","true"
"1581","ImagesCoins/10L92.5.png","190","test",".","image-keyboard-response","136","2646745","0.0-3.0-1.66","true"
"1463","ImagesCoins/10L90.png","190","test",".","image-keyboard-response","138","2648721","0.0-3.0-1.67","true"
"1160","ImagesCoins/10L105.png","188","test",",","image-keyboard-response","140","2650389","0.0-3.0-1.68","true"
"1776","ImagesCoins/10L102.5.png","188","test",",","image-keyboard-response","142","2652673","0.0-3.0-1.69","true"
"1449","ImagesCoins/10L107.5.png","188","test",",","image-keyboard-response","144","2654637","0.0-3.0-1.70","true"
"1123","ImagesCoins/10R110.png","190","test",".","image-keyboard-response","146","2656271","0.0-3.0-1.71","true"
"1630","ImagesCoins/10L92.5.png","190","test",".","image-keyboard-response","148","2658425","0.0-3.0-1.72","true"
"1285","ImagesCoins/10R92.5.png","188","test",",","image-keyboard-response","150","2660217","0.0-3.0-1.73","true"
"1338","ImagesCoins/10L107.5.png","188","test",",","image-keyboard-response","152","2662060","0.0-3.0-1.74","true"
"1255","ImagesCoins/10R110.png","190","test",".","image-keyboard-response","154","2663831","0.0-3.0-1.75","true"
"2015","ImagesCoins/10R102.5.png","190","test",".","image-keyboard-response","156","2666353","0.0-3.0-1.76","true"
"2343","ImagesCoins/10L100.png","190","test",".","image-keyboard-response","158","2669211","0.0-3.0-1.77","true"
"1270","ImagesCoins/10R107.5.png","190","test",".","image-keyboard-response","160","2670995","0.0-3.0-1.78","true"
"1660","ImagesCoins/10L95.png","190","test",".","image-keyboard-response","162","2673162","0.0-3.0-1.79","true"
"1120","ImagesCoins/10L105.png","188","test",",","image-keyboard-response","164","2674792","0.0-3.0-1.80","true"
"1600","ImagesCoins/10L110.png","188","test",",","image-keyboard-response","166","2676906","0.0-3.0-1.81","true"
"2690","ImagesCoins/10L97.5.png","190","test",".","image-keyboard-response","168","2680114","0.0-3.0-1.82","true"
"1418","ImagesCoins/10R105.png","190","test",".","image-keyboard-response","170","2682045","0.0-3.0-1.83","true"
"1568","ImagesCoins/10R97.5.png","188","test",",","image-keyboard-response","172","2684125","0.0-3.0-1.84","true"
"1292","ImagesCoins/10R90.png","188","test",",","image-keyboard-response","174","2685935","0.0-3.0-1.85","true"
"1274","ImagesCoins/10L90.png","190","test",".","image-keyboard-response","176","2687717","0.0-3.0-1.86","true"
"1430","ImagesCoins/10R95.png","188","test",",","image-keyboard-response","178","2689660","0.0-3.0-1.87","true"
"2276","ImagesCoins/10L102.5.png","188","test",",","image-keyboard-response","180","2692440","0.0-3.0-1.88","true"
"2194","ImagesCoins/10R100.png","190","test",".","image-keyboard-response","182","2695139","0.0-3.0-1.89","true"
"12579","ImagesSoccer/VL90.png","190","test",".","image-keyboard-response","184","2708225","0.0-4.0-1.0","true"
"3943","ImagesTennis/TL97.5.png","190","test",".","image-keyboard-response","186","2712679","0.0-4.0-1.1","true"
"1880","ImagesSoccer/VL97.5.png","188","test",".","image-keyboard-response","188","2715074","0.0-4.0-1.2","false"
"1842","ImagesSoccer/VL92.5.png","190","test",".","image-keyboard-response","190","2717419","0.0-4.0-1.3","true"
"3157","ImagesTennis/TL100.png","190","test",".","image-keyboard-response","192","2721087","0.0-4.0-1.4","true"
"1458","ImagesDirect/VL105.png","188","test",",","image-keyboard-response","194","2723058","0.0-4.0-1.5","true"
"1438","ImagesSoccer/VL110.png","188","test",",","image-keyboard-response","196","2725001","0.0-4.0-1.6","true"
"1519","ImagesDirect/VR105.png","190","test",".","image-keyboard-response","198","2727036","0.0-4.0-1.7","true"
"2887","ImagesDirect/VR97.5.png","190","test",",","image-keyboard-response","200","2730436","0.0-4.0-1.8","false"
"1623","ImagesSoccer/VR95.png","188","test",",","image-keyboard-response","202","2732576","0.0-4.0-1.9","true"
"1469","ImagesDirect/VL102.5.png","188","test",",","image-keyboard-response","204","2734556","0.0-4.0-1.10","true"
"1498","ImagesTennis/TL107.5.png","188","test",",","image-keyboard-response","206","2736567","0.0-4.0-1.11","true"
"1768","ImagesTennis/TR100.png","188","test",".","image-keyboard-response","208","2738840","0.0-4.0-1.12","false"
"2705","ImagesTennis/TL102.5.png","190","test",",","image-keyboard-response","210","2742057","0.0-4.0-1.13","false"
"1196","ImagesSoccer/VL107.5.png","188","test",",","image-keyboard-response","212","2743768","0.0-4.0-1.14","true"
"1755","ImagesDirect/VR100.png","190","test",".","image-keyboard-response","214","2746026","0.0-4.0-1.15","true"
"1504","ImagesDirect/VL100.png","188","test",".","image-keyboard-response","216","2748043","0.0-4.0-1.16","false"
"1381","ImagesDirect/VR92.5.png","188","test",",","image-keyboard-response","218","2749936","0.0-4.0-1.17","true"
"2023","ImagesSoccer/VL102.5.png","188","test",",","image-keyboard-response","220","2752463","0.0-4.0-1.18","true"
"1704","ImagesTennis/TL110.png","188","test",",","image-keyboard-response","222","2754681","0.0-4.0-1.19","true"
"1434","ImagesTennis/TR92.5.png","188","test",",","image-keyboard-response","224","2756621","0.0-4.0-1.20","true"
"1638","ImagesSoccer/VR92.5.png","188","test",",","image-keyboard-response","226","2758766","0.0-4.0-1.21","true"
"1467","ImagesTennis/TR90.png","188","test",",","image-keyboard-response","228","2760736","0.0-4.0-1.22","true"
"2820","ImagesDirect/VR95.png","188","test",",","image-keyboard-response","230","2764069","0.0-4.0-1.23","true"
"1935","ImagesSoccer/VR97.5.png","190","test",",","image-keyboard-response","232","2766514","0.0-4.0-1.24","false"
"2293","ImagesSoccer/VL95.png","190","test",".","image-keyboard-response","234","2769325","0.0-4.0-1.25","true"
"2203","ImagesDirect/VL95.png","190","test",".","image-keyboard-response","236","2772036","0.0-4.0-1.26","true"
"1061","ImagesTennis/TL90.png","190","test",".","image-keyboard-response","238","2773609","0.0-4.0-1.27","true"
"888","ImagesSoccer/VR105.png","190","test",".","image-keyboard-response","240","2775002","0.0-4.0-1.28","true"
"1816","ImagesTennis/TL95.png","190","test",".","image-keyboard-response","242","2777328","0.0-4.0-1.29","true"
"1430","ImagesDirect/VR102.5.png","190","test",".","image-keyboard-response","244","2779263","0.0-4.0-1.30","true"
"1538","ImagesSoccer/VR107.5.png","190","test",".","image-keyboard-response","246","2781320","0.0-4.0-1.31","true"
"1374","ImagesTennis/TL105.png","188","test",",","image-keyboard-response","248","2783205","0.0-4.0-1.32","true"
"1316","ImagesTennis/TR97.5.png","188","test",",","image-keyboard-response","250","2785032","0.0-4.0-1.33","true"
"1338","ImagesDirect/VL110.png","188","test",",","image-keyboard-response","252","2786888","0.0-4.0-1.34","true"
"1756","ImagesTennis/TR107.5.png","190","test",".","image-keyboard-response","254","2789156","0.0-4.0-1.35","true"
"3272","ImagesDirect/VL92.5.png","190","test",".","image-keyboard-response","256","2792944","0.0-4.0-1.36","true"
"3903","ImagesSoccer/VR100.png","190","test",".","image-keyboard-response","258","2797361","0.0-4.0-1.37","true"
"2350","ImagesTennis/TR102.5.png","188","test",".","image-keyboard-response","260","2800225","0.0-4.0-1.38","false"
"1063","ImagesTennis/TL92.5.png","190","test",".","image-keyboard-response","262","2801806","0.0-4.0-1.39","true"
"1182","ImagesDirect/VR90.png","188","test",",","image-keyboard-response","264","2803505","0.0-4.0-1.40","true"
"1539","ImagesSoccer/VR110.png","190","test",".","image-keyboard-response","266","2805548","0.0-4.0-1.41","true"
"1245","ImagesDirect/VL97.5.png","188","test",".","image-keyboard-response","268","2807308","0.0-4.0-1.42","false"
"1736","ImagesTennis/TR110.png","190","test",".","image-keyboard-response","270","2809547","0.0-4.0-1.43","true"
"1167","ImagesSoccer/VL100.png","188","test",".","image-keyboard-response","272","2811228","0.0-4.0-1.44","false"
"1336","ImagesSoccer/VL105.png","188","test",",","image-keyboard-response","274","2813079","0.0-4.0-1.45","true"
"1214","ImagesDirect/VL107.5.png","188","test",",","image-keyboard-response","276","2814808","0.0-4.0-1.46","true"
"1391","ImagesSoccer/VR90.png","188","test",",","image-keyboard-response","278","2816707","0.0-4.0-1.47","true"
"1171","ImagesDirect/VR107.5.png","190","test",".","image-keyboard-response","280","2818384","0.0-4.0-1.48","true"
"1233","ImagesDirect/VR110.png","190","test",".","image-keyboard-response","282","2820130","0.0-4.0-1.49","true"
"1432","ImagesTennis/TR95.png","188","test",",","image-keyboard-response","284","2822081","0.0-4.0-1.50","true"
"2618","ImagesTennis/TR105.png","190","test",".","image-keyboard-response","286","2825217","0.0-4.0-1.51","true"
"1741","ImagesSoccer/VR102.5.png","190","test",".","image-keyboard-response","288","2827461","0.0-4.0-1.52","true"
"1940","ImagesDirect/VL90.png","190","test",".","image-keyboard-response","290","2829906","0.0-4.0-1.53","true"
"5436","ImagesSoccer/VL95.png","190","test",".","image-keyboard-response","292","2835851","0.0-4.0-1.54","true"
"917","ImagesTennis/TL92.5.png","190","test",".","image-keyboard-response","294","2837272","0.0-4.0-1.55","true"
"1346","ImagesDirect/VL90.png","190","test",".","image-keyboard-response","296","2839131","0.0-4.0-1.56","true"
"1987","ImagesDirect/VR95.png","188","test",",","image-keyboard-response","298","2841624","0.0-4.0-1.57","true"
"897","ImagesTennis/TR95.png","188","test",",","image-keyboard-response","300","2843036","0.0-4.0-1.58","true"
"821","ImagesDirect/VL110.png","188","test",",","image-keyboard-response","302","2844376","0.0-4.0-1.59","true"
"1231","ImagesSoccer/VR97.5.png","188","test",",","image-keyboard-response","304","2846122","0.0-4.0-1.60","true"
"1140","ImagesSoccer/VL100.png","188","test",".","image-keyboard-response","306","2847766","0.0-4.0-1.61","false"
"1071","ImagesDirect/VL100.png","188","test",".","image-keyboard-response","308","2849348","0.0-4.0-1.62","false"
"1500","ImagesDirect/VL92.5.png","190","test",".","image-keyboard-response","310","2851356","0.0-4.0-1.63","true"
"952","ImagesSoccer/VR92.5.png","188","test",",","image-keyboard-response","312","2852814","0.0-4.0-1.64","true"
"935","ImagesSoccer/VL102.5.png","188","test",",","image-keyboard-response","314","2854259","0.0-4.0-1.65","true"
"1774","ImagesDirect/VL95.png","190","test",".","image-keyboard-response","316","2856556","0.0-4.0-1.66","true"
"1106","ImagesTennis/TL105.png","188","test",",","image-keyboard-response","318","2858177","0.0-4.0-1.67","true"
"967","ImagesDirect/VR92.5.png","188","test",",","image-keyboard-response","320","2859667","0.0-4.0-1.68","true"
"1543","ImagesTennis/TR107.5.png","190","test",".","image-keyboard-response","322","2861714","0.0-4.0-1.69","true"
"1288","ImagesSoccer/VR100.png","190","test",".","image-keyboard-response","324","2863507","0.0-4.0-1.70","true"
"1241","ImagesSoccer/VR95.png","188","test",",","image-keyboard-response","326","2865255","0.0-4.0-1.71","true"
"857","ImagesSoccer/VR107.5.png","190","test",".","image-keyboard-response","328","2866622","0.0-4.0-1.72","true"
"879","ImagesTennis/TL90.png","190","test",".","image-keyboard-response","330","2868010","0.0-4.0-1.73","true"
"897","ImagesDirect/VR110.png","190","test",".","image-keyboard-response","332","2869414","0.0-4.0-1.74","true"
"997","ImagesSoccer/VR90.png","188","test",",","image-keyboard-response","334","2870929","0.0-4.0-1.75","true"
"1101","ImagesDirect/VL105.png","188","test",",","image-keyboard-response","336","2872536","0.0-4.0-1.76","true"
"1443","ImagesTennis/TR110.png","190","test",".","image-keyboard-response","338","2874496","0.0-4.0-1.77","true"
"1789","ImagesSoccer/VL97.5.png","190","test",".","image-keyboard-response","340","2876792","0.0-4.0-1.78","true"
"1331","ImagesDirect/VR102.5.png","190","test",".","image-keyboard-response","342","2878636","0.0-4.0-1.79","true"
"1978","ImagesSoccer/VR102.5.png","188","test",".","image-keyboard-response","344","2881129","0.0-4.0-1.80","false"
"988","ImagesDirect/VR90.png","188","test",",","image-keyboard-response","346","2882627","0.0-4.0-1.81","true"
"783","ImagesDirect/VL107.5.png","188","test",",","image-keyboard-response","348","2883921","0.0-4.0-1.82","true"
"1014","ImagesTennis/TL95.png","190","test",".","image-keyboard-response","350","2885451","0.0-4.0-1.83","true"
"2032","ImagesTennis/TR105.png","190","test",".","image-keyboard-response","352","2887987","0.0-4.0-1.84","true"
"871","ImagesTennis/TL107.5.png","188","test",",","image-keyboard-response","354","2889363","0.0-4.0-1.85","true"
"1103","ImagesTennis/TR100.png","188","test",".","image-keyboard-response","356","2890979","0.0-4.0-1.86","false"
"1457","ImagesTennis/TR92.5.png","188","test",",","image-keyboard-response","358","2892947","0.0-4.0-1.87","true"
"1528","ImagesDirect/VR97.5.png","190","test",",","image-keyboard-response","360","2894987","0.0-4.0-1.88","false"
"1200","ImagesTennis/TL110.png","188","test",",","image-keyboard-response","362","2896694","0.0-4.0-1.89","true"
"1355","ImagesDirect/VR107.5.png","190","test",".","image-keyboard-response","364","2898562","0.0-4.0-1.90","true"
"875","ImagesTennis/TR90.png","188","test",",","image-keyboard-response","366","2899948","0.0-4.0-1.91","true"
"1891","ImagesTennis/TR102.5.png","188","test",".","image-keyboard-response","368","2902348","0.0-4.0-1.92","false"
"1234","ImagesSoccer/VL90.png","190","test",".","image-keyboard-response","370","2904088","0.0-4.0-1.93","true"
"1143","ImagesTennis/TR97.5.png","188","test",",","image-keyboard-response","372","2905747","0.0-4.0-1.94","true"
"1968","ImagesTennis/TL100.png","190","test",".","image-keyboard-response","374","2908228","0.0-4.0-1.95","true"
"911","ImagesDirect/VL97.5.png","188","test",".","image-keyboard-response","376","2909653","0.0-4.0-1.96","false"
"1531","ImagesSoccer/VL92.5.png","190","test",".","image-keyboard-response","378","2911689","0.0-4.0-1.97","true"
"1529","ImagesDirect/VR100.png","190","test",".","image-keyboard-response","380","2913721","0.0-4.0-1.98","true"
"1040","ImagesSoccer/VR105.png","190","test",".","image-keyboard-response","382","2915267","0.0-4.0-1.99","true"
"1431","ImagesTennis/TL97.5.png","190","test",".","image-keyboard-response","384","2917210","0.0-4.0-1.100","true"
"1221","ImagesTennis/TL102.5.png","188","test",",","image-keyboard-response","386","2918949","0.0-4.0-1.101","true"
"748","ImagesSoccer/VL110.png","188","test",",","image-keyboard-response","388","2920209","0.0-4.0-1.102","true"
"895","ImagesSoccer/VR110.png","190","test",".","image-keyboard-response","390","2921607","0.0-4.0-1.103","true"
"802","ImagesSoccer/VL107.5.png","188","test",",","image-keyboard-response","392","2922915","0.0-4.0-1.104","true"
"948","ImagesDirect/VR105.png","190","test",".","image-keyboard-response","394","2924376","0.0-4.0-1.105","true"
"900","ImagesDirect/VL102.5.png","188","test",",","image-keyboard-response","396","2925781","0.0-4.0-1.106","true"
"817","ImagesSoccer/VL105.png","188","test",",","image-keyboard-response","398","2927116","0.0-4.0-1.107","true"
"926","ImagesSoccer/VL107.5.png","188","test",",","image-keyboard-response","400","2928556","0.0-4.0-1.108","true"
"1118","ImagesDirect/VL90.png","190","test",".","image-keyboard-response","402","2930185","0.0-4.0-1.109","true"
"1700","ImagesTennis/TL102.5.png","188","test",",","image-keyboard-response","404","2932398","0.0-4.0-1.110","true"
"2437","ImagesTennis/TR105.png","190","test",".","image-keyboard-response","406","2935339","0.0-4.0-1.111","true"
"1175","ImagesTennis/TR97.5.png","188","test",",","image-keyboard-response","408","2937023","0.0-4.0-1.112","true"
"1325","ImagesSoccer/VL102.5.png","188","test",",","image-keyboard-response","410","2938860","0.0-4.0-1.113","true"
"1069","ImagesSoccer/VR102.5.png","190","test",".","image-keyboard-response","412","2940439","0.0-4.0-1.114","true"
"842","ImagesTennis/TL90.png","190","test",".","image-keyboard-response","414","2941795","0.0-4.0-1.115","true"
"1073","ImagesSoccer/VL100.png","188","test",".","image-keyboard-response","416","2943376","0.0-4.0-1.116","false"
"1218","ImagesTennis/TL100.png","190","test",".","image-keyboard-response","418","2945104","0.0-4.0-1.117","true"
"1370","ImagesSoccer/VL97.5.png","190","test",".","image-keyboard-response","420","2946977","0.0-4.0-1.118","true"
"1007","ImagesDirect/VR105.png","190","test",".","image-keyboard-response","422","2948496","0.0-4.0-1.119","true"
"1150","ImagesTennis/TL95.png","190","test",".","image-keyboard-response","424","2950157","0.0-4.0-1.120","true"
"1355","ImagesSoccer/VR97.5.png","188","test",",","image-keyboard-response","426","2952026","0.0-4.0-1.121","true"
"1047","ImagesTennis/TR95.png","188","test",",","image-keyboard-response","428","2953586","0.0-4.0-1.122","true"
"2112","ImagesSoccer/VL95.png","190","test",".","image-keyboard-response","430","2956219","0.0-4.0-1.123","true"
"845","ImagesDirect/VR102.5.png","190","test",".","image-keyboard-response","432","2957570","0.0-4.0-1.124","true"
"1420","ImagesDirect/VR107.5.png","190","test",".","image-keyboard-response","434","2959504","0.0-4.0-1.125","true"
"1074","ImagesDirect/VR110.png","190","test",".","image-keyboard-response","436","2961088","0.0-4.0-1.126","true"
"1285","ImagesDirect/VL97.5.png","188","test",".","image-keyboard-response","438","2962890","0.0-4.0-1.127","false"
"1032","ImagesSoccer/VR92.5.png","188","test",",","image-keyboard-response","440","2964437","0.0-4.0-1.128","true"
"996","ImagesTennis/TR110.png","190","test",".","image-keyboard-response","442","2965945","0.0-4.0-1.129","true"
"833","ImagesDirect/VL105.png","188","test",",","image-keyboard-response","444","2967297","0.0-4.0-1.130","true"
"884","ImagesSoccer/VR110.png","190","test",".","image-keyboard-response","446","2968699","0.0-4.0-1.131","true"
"1380","ImagesDirect/VR97.5.png","188","test",",","image-keyboard-response","448","2970596","0.0-4.0-1.132","true"
"895","ImagesSoccer/VR105.png","190","test",".","image-keyboard-response","450","2971995","0.0-4.0-1.133","true"
"1507","ImagesTennis/TL110.png","188","test",",","image-keyboard-response","452","2974006","0.0-4.0-1.134","true"
"1310","ImagesSoccer/VR100.png","188","test",".","image-keyboard-response","454","2975825","0.0-4.0-1.135","false"
"1146","ImagesDirect/VL92.5.png","188","test",".","image-keyboard-response","456","2977485","0.0-4.0-1.136","false"
"1604","ImagesSoccer/VL90.png","190","test",".","image-keyboard-response","458","2979592","0.0-4.0-1.137","true"
"886","ImagesSoccer/VR95.png","188","test",",","image-keyboard-response","460","2980993","0.0-4.0-1.138","true"
"1047","ImagesDirect/VR90.png","188","test",",","image-keyboard-response","462","2982549","0.0-4.0-1.139","true"
"1366","ImagesTennis/TR100.png","188","test",".","image-keyboard-response","464","2984434","0.0-4.0-1.140","false"
"810","ImagesTennis/TL107.5.png","188","test",",","image-keyboard-response","466","2985750","0.0-4.0-1.141","true"
"839","ImagesTennis/TL92.5.png","190","test",".","image-keyboard-response","468","2987094","0.0-4.0-1.142","true"
"755","ImagesDirect/VL110.png","188","test",",","image-keyboard-response","470","2988361","0.0-4.0-1.143","true"
"745","ImagesSoccer/VL105.png","188","test",",","image-keyboard-response","472","2989620","0.0-4.0-1.144","true"
"1296","ImagesTennis/TR107.5.png","190","test",".","image-keyboard-response","474","2991422","0.0-4.0-1.145","true"
"1453","ImagesDirect/VL107.5.png","188","test",",","image-keyboard-response","476","2993379","0.0-4.0-1.146","true"
"1972","ImagesDirect/VR95.png","188","test",",","image-keyboard-response","478","2995864","0.0-4.0-1.147","true"
"1081","ImagesTennis/TL97.5.png","190","test",".","image-keyboard-response","480","2997457","0.0-4.0-1.148","true"
"1776","ImagesTennis/TR102.5.png","188","test",".","image-keyboard-response","482","2999737","0.0-4.0-1.149","false"
"818","ImagesTennis/TR92.5.png","188","test",",","image-keyboard-response","484","3001062","0.0-4.0-1.150","true"
"2597","ImagesDirect/VL95.png","190","test",".","image-keyboard-response","486","3004176","0.0-4.0-1.151","true"
"796","ImagesSoccer/VR90.png","188","test",",","image-keyboard-response","488","3005477","0.0-4.0-1.152","true"
"1056","ImagesDirect/VR100.png","190","test",".","image-keyboard-response","490","3007050","0.0-4.0-1.153","true"
"1818","ImagesSoccer/VL92.5.png","190","test",".","image-keyboard-response","492","3009383","0.0-4.0-1.154","true"
"970","ImagesSoccer/VR107.5.png","190","test",".","image-keyboard-response","494","3010867","0.0-4.0-1.155","true"
"906","ImagesTennis/TR90.png","188","test",",","image-keyboard-response","496","3012287","0.0-4.0-1.156","true"
"919","ImagesTennis/TL105.png","188","test",",","image-keyboard-response","498","3013717","0.0-4.0-1.157","true"
"637","ImagesSoccer/VL110.png","188","test",",","image-keyboard-response","500","3014868","0.0-4.0-1.158","true"
"937","ImagesDirect/VL102.5.png","188","test",",","image-keyboard-response","502","3016320","0.0-4.0-1.159","true"
"1122","ImagesDirect/VL100.png","188","test",".","image-keyboard-response","504","3017957","0.0-4.0-1.160","false"
"1012","ImagesDirect/VR92.5.png","188","test",",","image-keyboard-response","506","3019482","0.0-4.0-1.161","true"
"1120","ImagesTennis/TR110.png","190","test",".","image-keyboard-response","508","3021107","0.0-4.0-1.162","true"
"744","ImagesSoccer/VL110.png","188","test",",","image-keyboard-response","510","3022361","0.0-4.0-1.163","true"
"930","ImagesTennis/TL105.png","188","test",",","image-keyboard-response","512","3023800","0.0-4.0-1.164","true"
"908","ImagesTennis/TL107.5.png","188","test",",","image-keyboard-response","514","3025211","0.0-4.0-1.165","true"
"1960","ImagesDirect/VR100.png","190","test",".","image-keyboard-response","516","3027679","0.0-4.0-1.166","true"
"1006","ImagesSoccer/VR97.5.png","188","test",",","image-keyboard-response","518","3029192","0.0-4.0-1.167","true"
"1154","ImagesTennis/TL100.png","190","test",".","image-keyboard-response","520","3030860","0.0-4.0-1.168","true"
"1172","ImagesDirect/VR105.png","190","test",".","image-keyboard-response","522","3032545","0.0-4.0-1.169","true"
"943","ImagesTennis/TL110.png","188","test",",","image-keyboard-response","524","3034000","0.0-4.0-1.170","true"
"943","ImagesDirect/VL105.png","188","test",",","image-keyboard-response","526","3035454","0.0-4.0-1.171","true"
"836","ImagesDirect/VR110.png","190","test",".","image-keyboard-response","528","3036795","0.0-4.0-1.172","true"
"1109","ImagesTennis/TL102.5.png","188","test",",","image-keyboard-response","530","3038416","0.0-4.0-1.173","true"
"1354","ImagesSoccer/VR90.png","188","test",",","image-keyboard-response","532","3040278","0.0-4.0-1.174","true"
"1524","ImagesDirect/VL92.5.png","190","test",".","image-keyboard-response","534","3042308","0.0-4.0-1.175","true"
"2165","ImagesSoccer/VL92.5.png","190","test",".","image-keyboard-response","536","3044976","0.0-4.0-1.176","true"
"969","ImagesTennis/TL95.png","190","test",".","image-keyboard-response","538","3046463","0.0-4.0-1.177","true"
"1995","ImagesSoccer/VL97.5.png","188","test",".","image-keyboard-response","540","3048972","0.0-4.0-1.178","false"
"1108","ImagesDirect/VR92.5.png","188","test",",","image-keyboard-response","542","3050587","0.0-4.0-1.179","true"
"805","ImagesTennis/TL92.5.png","190","test",".","image-keyboard-response","544","3051905","0.0-4.0-1.180","true"
"718","ImagesSoccer/VL107.5.png","188","test",",","image-keyboard-response","546","3053132","0.0-4.0-1.181","true"
"1085","ImagesSoccer/VL90.png","190","test",".","image-keyboard-response","548","3054734","0.0-4.0-1.182","true"
"1046","ImagesDirect/VL95.png","188","test",".","image-keyboard-response","550","3056285","0.0-4.0-1.183","false"
"767","ImagesTennis/TR95.png","188","test",",","image-keyboard-response","552","3057561","0.0-4.0-1.184","true"
"900","ImagesDirect/VL97.5.png","188","test",".","image-keyboard-response","554","3058969","0.0-4.0-1.185","false"
"968","ImagesDirect/VL90.png","190","test",".","image-keyboard-response","556","3060441","0.0-4.0-1.186","true"
"909","ImagesDirect/VR102.5.png","190","test",".","image-keyboard-response","558","3061867","0.0-4.0-1.187","true"
"805","ImagesDirect/VL107.5.png","188","test",",","image-keyboard-response","560","3063181","0.0-4.0-1.188","true"
"891","ImagesSoccer/VR107.5.png","190","test",".","image-keyboard-response","562","3064576","0.0-4.0-1.189","true"
"1023","ImagesSoccer/VR95.png","188","test",",","image-keyboard-response","564","3066108","0.0-4.0-1.190","true"
"1302","ImagesTennis/TL97.5.png","190","test",".","image-keyboard-response","566","3067923","0.0-4.0-1.191","true"
"958","ImagesDirect/VR95.png","188","test",",","image-keyboard-response","568","3069396","0.0-4.0-1.192","true"
"833","ImagesDirect/VL110.png","188","test",",","image-keyboard-response","570","3070740","0.0-4.0-1.193","true"
"814","ImagesTennis/TL90.png","190","test",".","image-keyboard-response","572","3072067","0.0-4.0-1.194","true"
"813","ImagesTennis/TR97.5.png","188","test",",","image-keyboard-response","574","3073384","0.0-4.0-1.195","true"
"997","ImagesDirect/VR90.png","188","test",",","image-keyboard-response","576","3074888","0.0-4.0-1.196","true"
"1070","ImagesSoccer/VL105.png","188","test",",","image-keyboard-response","578","3076475","0.0-4.0-1.197","true"
"2074","ImagesSoccer/VL95.png","190","test",".","image-keyboard-response","580","3079065","0.0-4.0-1.198","true"
"1171","ImagesSoccer/VR110.png","190","test",".","image-keyboard-response","582","3080747","0.0-4.0-1.199","true"
"1446","ImagesDirect/VR97.5.png","188","test",",","image-keyboard-response","584","3082702","0.0-4.0-1.200","true"
"1031","ImagesSoccer/VR105.png","190","test",".","image-keyboard-response","586","3084238","0.0-4.0-1.201","true"
"970","ImagesSoccer/VR92.5.png","188","test",",","image-keyboard-response","588","3085714","0.0-4.0-1.202","true"
"919","ImagesDirect/VR107.5.png","190","test",".","image-keyboard-response","590","3087146","0.0-4.0-1.203","true"
"809","ImagesTennis/TR90.png","188","test",",","image-keyboard-response","592","3088470","0.0-4.0-1.204","true"
"776","ImagesTennis/TR92.5.png","188","test",",","image-keyboard-response","594","3089753","0.0-4.0-1.205","true"
"1484","ImagesSoccer/VR102.5.png","190","test",".","image-keyboard-response","596","3091747","0.0-4.0-1.206","true"
"2069","ImagesTennis/TR102.5.png","190","test",".","image-keyboard-response","598","3094329","0.0-4.0-1.207","true"
"879","ImagesDirect/VL102.5.png","188","test",",","image-keyboard-response","600","3095725","0.0-4.0-1.208","true"
"1255","ImagesDirect/VL100.png","188","test",".","image-keyboard-response","602","3097487","0.0-4.0-1.209","false"
"1495","ImagesTennis/TR105.png","190","test",".","image-keyboard-response","604","3099490","0.0-4.0-1.210","true"
"750","ImagesSoccer/VL100.png","188","test",".","image-keyboard-response","606","3100747","0.0-4.0-1.211","false"
"2876","ImagesSoccer/VR100.png","190","test",".","image-keyboard-response","608","3104142","0.0-4.0-1.212","true"
"942","ImagesTennis/TR107.5.png","190","test",".","image-keyboard-response","610","3105592","0.0-4.0-1.213","true"
"1066","ImagesSoccer/VL102.5.png","188","test",",","image-keyboard-response","612","3107168","0.0-4.0-1.214","true"
"964","ImagesTennis/TR100.png","188","test",".","image-keyboard-response","614","3108649","0.0-4.0-1.215","false"
"1528","ImagesDirect/VR90.png","188","test",",","image-keyboard-response","616","3110682","0.0-4.0-1.216","true"
"1081","ImagesSoccer/VR90.png","188","test",",","image-keyboard-response","618","3112267","0.0-4.0-1.217","true"
"989","ImagesTennis/TL110.png","188","test",",","image-keyboard-response","620","3113760","0.0-4.0-1.218","true"
"933","ImagesSoccer/VR110.png","190","test",".","image-keyboard-response","622","3115205","0.0-4.0-1.219","true"
"1298","ImagesDirect/VR105.png","190","test",".","image-keyboard-response","624","3117016","0.0-4.0-1.220","true"
"952","ImagesTennis/TL107.5.png","188","test",",","image-keyboard-response","626","3118473","0.0-4.0-1.221","true"
"751","ImagesDirect/VL107.5.png","188","test",",","image-keyboard-response","628","3119739","0.0-4.0-1.222","true"
"937","ImagesTennis/TR102.5.png","188","test",".","image-keyboard-response","630","3121194","0.0-4.0-1.223","false"
"1852","ImagesTennis/TR110.png","190","test",".","image-keyboard-response","632","3123559","0.0-4.0-1.224","true"
"906","ImagesTennis/TR92.5.png","188","test",",","image-keyboard-response","634","3124981","0.0-4.0-1.225","true"
"800","ImagesSoccer/VL110.png","188","test",",","image-keyboard-response","636","3126291","0.0-4.0-1.226","true"
"1201","ImagesSoccer/VL100.png","188","test",".","image-keyboard-response","638","3128007","0.0-4.0-1.227","false"
"1329","ImagesTennis/TR107.5.png","190","test",".","image-keyboard-response","640","3129853","0.0-4.0-1.228","true"
"941","ImagesTennis/TL90.png","190","test",".","image-keyboard-response","642","3131302","0.0-4.0-1.229","true"
"3407","ImagesDirect/VL92.5.png","190","test",".","image-keyboard-response","644","3135217","0.0-4.0-1.230","true"
"1038","ImagesDirect/VL97.5.png","188","test",".","image-keyboard-response","646","3136768","0.0-4.0-1.231","false"
"725","ImagesDirect/VL110.png","188","test",",","image-keyboard-response","648","3138005","0.0-4.0-1.232","true"
"1091","ImagesDirect/VR92.5.png","188","test",",","image-keyboard-response","650","3139605","0.0-4.0-1.233","true"
"1748","ImagesSoccer/VL97.5.png","190","test",".","image-keyboard-response","652","3141862","0.0-4.0-1.234","true"
"1088","ImagesSoccer/VR95.png","188","test",",","image-keyboard-response","654","3143453","0.0-4.0-1.235","true"
"1107","ImagesSoccer/VR107.5.png","190","test",".","image-keyboard-response","656","3145070","0.0-4.0-1.236","true"
"1030","ImagesDirect/VR100.png","188","test",".","image-keyboard-response","658","3146611","0.0-4.0-1.237","false"
"1269","ImagesSoccer/VR100.png","190","test",".","image-keyboard-response","660","3148386","0.0-4.0-1.238","true"
"1336","ImagesSoccer/VL102.5.png","188","test",",","image-keyboard-response","662","3150234","0.0-4.0-1.239","true"
"835","ImagesDirect/VL102.5.png","188","test",",","image-keyboard-response","664","3151585","0.0-4.0-1.240","true"
"1120","ImagesTennis/TL105.png","188","test",",","image-keyboard-response","666","3153219","0.0-4.0-1.241","true"
"803","ImagesTennis/TL92.5.png","190","test",".","image-keyboard-response","668","3154540","0.0-4.0-1.242","true"
"881","ImagesTennis/TL102.5.png","188","test",",","image-keyboard-response","670","3155938","0.0-4.0-1.243","true"
"2339","ImagesTennis/TL97.5.png","190","test",".","image-keyboard-response","672","3158786","0.0-4.0-1.244","true"
"1006","ImagesDirect/VR107.5.png","190","test",".","image-keyboard-response","674","3160309","0.0-4.0-1.245","true"
"1328","ImagesDirect/VL90.png","190","test",".","image-keyboard-response","676","3162155","0.0-4.0-1.246","true"
"690","ImagesSoccer/VL105.png","188","test",",","image-keyboard-response","678","3163363","0.0-4.0-1.247","true"
"1100","ImagesDirect/VR102.5.png","190","test",".","image-keyboard-response","680","3164971","0.0-4.0-1.248","true"
"699","ImagesSoccer/VL107.5.png","188","test",",","image-keyboard-response","682","3166178","0.0-4.0-1.249","true"
"915","ImagesTennis/TR90.png","188","test",",","image-keyboard-response","684","3167603","0.0-4.0-1.250","true"
"1308","ImagesDirect/VR95.png","188","test",",","image-keyboard-response","686","3169416","0.0-4.0-1.251","true"
"1807","ImagesSoccer/VL95.png","190","test",".","image-keyboard-response","688","3171734","0.0-4.0-1.252","true"
"732","ImagesTennis/TR95.png","188","test",",","image-keyboard-response","690","3172975","0.0-4.0-1.253","true"
"997","ImagesTennis/TL100.png","190","test",".","image-keyboard-response","692","3174490","0.0-4.0-1.254","true"
"843","ImagesDirect/VR110.png","190","test",".","image-keyboard-response","694","3175838","0.0-4.0-1.255","true"
"1083","ImagesTennis/TR97.5.png","188","test",",","image-keyboard-response","696","3177426","0.0-4.0-1.256","true"
"1318","ImagesSoccer/VR102.5.png","190","test",".","image-keyboard-response","698","3179263","0.0-4.0-1.257","true"
"1501","ImagesSoccer/VL90.png","190","test",".","image-keyboard-response","700","3181278","0.0-4.0-1.258","true"
"1692","ImagesSoccer/VL92.5.png","190","test",".","image-keyboard-response","702","3183473","0.0-4.0-1.259","true"
"3015","ImagesDirect/VR97.5.png","188","test",",","image-keyboard-response","704","3186996","0.0-4.0-1.260","true"
"996","ImagesSoccer/VR92.5.png","188","test",",","image-keyboard-response","706","3188509","0.0-4.0-1.261","true"
"1028","ImagesTennis/TL95.png","190","test",".","image-keyboard-response","708","3190043","0.0-4.0-1.262","true"
"807","ImagesDirect/VL105.png","188","test",",","image-keyboard-response","710","3191371","0.0-4.0-1.263","true"
"1423","ImagesTennis/TR105.png","188","test",".","image-keyboard-response","712","3193306","0.0-4.0-1.264","false"
"1184","ImagesSoccer/VR105.png","190","test",".","image-keyboard-response","714","3195000","0.0-4.0-1.265","true"
"995","ImagesSoccer/VR97.5.png","188","test",",","image-keyboard-response","716","3196513","0.0-4.0-1.266","true"
"1638","ImagesTennis/TR100.png","188","test",".","image-keyboard-response","718","3198659","0.0-4.0-1.267","false"
"880","ImagesDirect/VL100.png","188","test",".","image-keyboard-response","720","3200056","0.0-4.0-1.268","false"
"1386","ImagesDirect/VL95.png","188","test",".","image-keyboard-response","722","3201948","0.0-4.0-1.269","false"
