rt;stimulus;key_press;test_part;correct_response;trial_type;trial_index;time_elapsed;internal_node_id;correct
4070;ImagesCoins/10R95.png;188;test;,;image-keyboard-response;4;24951;0.0-3.0-1.0;true
1512;ImagesCoins/10R110.png;190;test;.;image-keyboard-response;6;26966;0.0-3.0-1.1;true
1810;ImagesCoins/10R105.png;190;test;.;image-keyboard-response;8;29278;0.0-3.0-1.2;true
1881;ImagesCoins/10L105.png;188;test;,;image-keyboard-response;10;31662;0.0-3.0-1.3;true
1009;ImagesCoins/10R102.5.png;190;test;.;image-keyboard-response;12;33174;0.0-3.0-1.4;true
1313;ImagesCoins/10L92.5.png;190;test;.;image-keyboard-response;14;34990;0.0-3.0-1.5;true
2457;ImagesCoins/10L90.png;190;test;.;image-keyboard-response;16;37950;0.0-3.0-1.6;true
1649;ImagesCoins/10R97.5.png;190;test;,;image-keyboard-response;18;40102;0.0-3.0-1.7;false
817;ImagesCoins/10L107.5.png;188;test;,;image-keyboard-response;20;41422;0.0-3.0-1.8;true
4497;ImagesCoins/10L100.png;188;test;.;image-keyboard-response;22;46422;0.0-3.0-1.9;false
944;ImagesCoins/10L110.png;188;test;,;image-keyboard-response;24;47870;0.0-3.0-1.10;true
793;ImagesCoins/10R100.png;190;test;.;image-keyboard-response;26;49166;0.0-3.0-1.11;true
698;ImagesCoins/10R107.5.png;190;test;.;image-keyboard-response;28;50366;0.0-3.0-1.12;true
817;ImagesCoins/10L102.5.png;188;test;,;image-keyboard-response;30;51686;0.0-3.0-1.13;true
1146;ImagesCoins/10R92.5.png;188;test;,;image-keyboard-response;32;53334;0.0-3.0-1.14;true
1107;ImagesCoins/10R90.png;188;test;,;image-keyboard-response;34;54942;0.0-3.0-1.15;true
1360;ImagesCoins/10L97.5.png;190;test;.;image-keyboard-response;36;56807;0.0-3.0-1.16;true
1913;ImagesCoins/10L95.png;190;test;.;image-keyboard-response;38;59223;0.0-3.0-1.17;true
721;ImagesCoins/10L100.png;188;test;.;image-keyboard-response;40;60446;0.0-3.0-1.18;false
689;ImagesCoins/10R95.png;190;test;,;image-keyboard-response;42;61639;0.0-3.0-1.19;false
873;ImagesCoins/10R107.5.png;190;test;.;image-keyboard-response;44;63015;0.0-3.0-1.20;true
1554;ImagesCoins/10R97.5.png;190;test;,;image-keyboard-response;46;65071;0.0-3.0-1.21;false
945;ImagesCoins/10L90.png;190;test;.;image-keyboard-response;48;66519;0.0-3.0-1.22;true
802;ImagesCoins/10L107.5.png;188;test;,;image-keyboard-response;50;67823;0.0-3.0-1.23;true
681;ImagesCoins/10R105.png;190;test;.;image-keyboard-response;52;69007;0.0-3.0-1.24;true
1538;ImagesCoins/10L92.5.png;190;test;.;image-keyboard-response;54;71047;0.0-3.0-1.25;true
730;ImagesCoins/10R92.5.png;188;test;,;image-keyboard-response;56;72279;0.0-3.0-1.26;true
794;ImagesCoins/10L105.png;188;test;,;image-keyboard-response;58;73575;0.0-3.0-1.27;true
705;ImagesCoins/10L102.5.png;188;test;,;image-keyboard-response;60;74783;0.0-3.0-1.28;true
643;ImagesCoins/10L110.png;188;test;,;image-keyboard-response;62;75927;0.0-3.0-1.29;true
657;ImagesCoins/10R100.png;190;test;.;image-keyboard-response;64;77087;0.0-3.0-1.30;true
601;ImagesCoins/10R110.png;190;test;.;image-keyboard-response;66;78191;0.0-3.0-1.31;true
1193;ImagesCoins/10R90.png;188;test;,;image-keyboard-response;68;79887;0.0-3.0-1.32;true
1337;ImagesCoins/10L97.5.png;188;test;.;image-keyboard-response;70;81727;0.0-3.0-1.33;false
786;ImagesCoins/10R102.5.png;190;test;.;image-keyboard-response;72;83015;0.0-3.0-1.34;true
697;ImagesCoins/10L95.png;188;test;.;image-keyboard-response;74;84215;0.0-3.0-1.35;false
849;ImagesCoins/10L95.png;190;test;.;image-keyboard-response;76;85567;0.0-3.0-1.36;true
705;ImagesCoins/10L110.png;188;test;,;image-keyboard-response;78;86775;0.0-3.0-1.37;true
937;ImagesCoins/10L92.5.png;190;test;.;image-keyboard-response;80;88216;0.0-3.0-1.38;true
1073;ImagesCoins/10L97.5.png;188;test;.;image-keyboard-response;82;89792;0.0-3.0-1.39;false
601;ImagesCoins/10R102.5.png;190;test;.;image-keyboard-response;84;90895;0.0-3.0-1.40;true
649;ImagesCoins/10R107.5.png;190;test;.;image-keyboard-response;86;92048;0.0-3.0-1.41;true
1409;ImagesCoins/10L90.png;190;test;.;image-keyboard-response;88;93960;0.0-3.0-1.42;true
1281;ImagesCoins/10R90.png;188;test;,;image-keyboard-response;90;95744;0.0-3.0-1.43;true
1097;ImagesCoins/10L105.png;188;test;,;image-keyboard-response;92;97344;0.0-3.0-1.44;true
698;ImagesCoins/10R105.png;190;test;.;image-keyboard-response;94;98544;0.0-3.0-1.45;true
1338;ImagesCoins/10R97.5.png;190;test;,;image-keyboard-response;96;100384;0.0-3.0-1.46;false
849;ImagesCoins/10R92.5.png;188;test;,;image-keyboard-response;98;101735;0.0-3.0-1.47;true
1434;ImagesCoins/10L100.png;188;test;.;image-keyboard-response;100;103672;0.0-3.0-1.48;false
649;ImagesCoins/10R110.png;190;test;.;image-keyboard-response;102;104824;0.0-3.0-1.49;true
1233;ImagesCoins/10R100.png;190;test;.;image-keyboard-response;104;106560;0.0-3.0-1.50;true
817;ImagesCoins/10L102.5.png;188;test;,;image-keyboard-response;106;107880;0.0-3.0-1.51;true
3025;ImagesCoins/10R95.png;188;test;,;image-keyboard-response;108;111408;0.0-3.0-1.52;true
1521;ImagesCoins/10L107.5.png;188;test;,;image-keyboard-response;110;113432;0.0-3.0-1.53;true
1145;ImagesCoins/10L107.5.png;188;test;,;image-keyboard-response;112;115080;0.0-3.0-1.54;true
1049;ImagesCoins/10L95.png;190;test;.;image-keyboard-response;114;116632;0.0-3.0-1.55;true
3031;ImagesCoins/10R100.png;190;test;.;image-keyboard-response;116;120166;0.0-3.0-1.56;true
785;ImagesCoins/10R110.png;190;test;.;image-keyboard-response;118;121454;0.0-3.0-1.57;true
1041;ImagesCoins/10R97.5.png;188;test;,;image-keyboard-response;120;122998;0.0-3.0-1.58;true
673;ImagesCoins/10L100.png;188;test;.;image-keyboard-response;122;124174;0.0-3.0-1.59;false
625;ImagesCoins/10L110.png;188;test;,;image-keyboard-response;124;125302;0.0-3.0-1.60;true
1785;ImagesCoins/10R92.5.png;190;test;,;image-keyboard-response;126;127590;0.0-3.0-1.61;false
3161;ImagesCoins/10L97.5.png;190;test;.;image-keyboard-response;128;131254;0.0-3.0-1.62;true
617;ImagesCoins/10R102.5.png;190;test;.;image-keyboard-response;130;132374;0.0-3.0-1.63;true
1235;ImagesCoins/10R90.png;188;test;,;image-keyboard-response;132;134110;0.0-3.0-1.64;true
1521;ImagesCoins/10R105.png;190;test;.;image-keyboard-response;134;136134;0.0-3.0-1.65;true
1585;ImagesCoins/10L92.5.png;190;test;.;image-keyboard-response;136;138222;0.0-3.0-1.66;true
937;ImagesCoins/10L105.png;188;test;,;image-keyboard-response;138;139662;0.0-3.0-1.67;true
2321;ImagesCoins/10R95.png;188;test;,;image-keyboard-response;140;142487;0.0-3.0-1.68;true
713;ImagesCoins/10L102.5.png;188;test;,;image-keyboard-response;142;143703;0.0-3.0-1.69;true
657;ImagesCoins/10L90.png;190;test;.;image-keyboard-response;144;144863;0.0-3.0-1.70;true
706;ImagesCoins/10R107.5.png;190;test;.;image-keyboard-response;146;146071;0.0-3.0-1.71;true
753;ImagesCoins/10R110.png;190;test;.;image-keyboard-response;148;147327;0.0-3.0-1.72;true
1138;ImagesCoins/10R97.5.png;188;test;,;image-keyboard-response;150;148967;0.0-3.0-1.73;true
1434;ImagesCoins/10L97.5.png;190;test;.;image-keyboard-response;152;150903;0.0-3.0-1.74;true
634;ImagesCoins/10L110.png;188;test;,;image-keyboard-response;154;152039;0.0-3.0-1.75;true
962;ImagesCoins/10L92.5.png;190;test;.;image-keyboard-response;156;153503;0.0-3.0-1.76;true
1257;ImagesCoins/10L95.png;190;test;.;image-keyboard-response;158;155263;0.0-3.0-1.77;true
778;ImagesCoins/10R90.png;188;test;,;image-keyboard-response;160;156543;0.0-3.0-1.78;true
665;ImagesCoins/10R105.png;190;test;.;image-keyboard-response;162;157711;0.0-3.0-1.79;true
1281;ImagesCoins/10L90.png;190;test;.;image-keyboard-response;164;159495;0.0-3.0-1.80;true
801;ImagesCoins/10L102.5.png;188;test;,;image-keyboard-response;166;160799;0.0-3.0-1.81;true
601;ImagesCoins/10R107.5.png;190;test;.;image-keyboard-response;168;161903;0.0-3.0-1.82;true
2249;ImagesCoins/10R95.png;188;test;,;image-keyboard-response;170;164655;0.0-3.0-1.83;true
706;ImagesCoins/10L107.5.png;188;test;,;image-keyboard-response;172;165863;0.0-3.0-1.84;true
1121;ImagesCoins/10L105.png;188;test;,;image-keyboard-response;174;167487;0.0-3.0-1.85;true
697;ImagesCoins/10R102.5.png;190;test;.;image-keyboard-response;176;168687;0.0-3.0-1.86;true
729;ImagesCoins/10L100.png;188;test;.;image-keyboard-response;178;169919;0.0-3.0-1.87;false
1041;ImagesCoins/10R100.png;190;test;.;image-keyboard-response;180;171464;0.0-3.0-1.88;true
1441;ImagesCoins/10R92.5.png;188;test;,;image-keyboard-response;182;173408;0.0-3.0-1.89;true
3881;ImagesTennis/TR100.png;188;test;.;image-keyboard-response;184;177791;0.0-4.0-1.0;false
2569;ImagesSoccer/VL102.5.png;188;test;,;image-keyboard-response;186;180863;0.0-4.0-1.1;true
1337;ImagesSoccer/VL105.png;188;test;,;image-keyboard-response;188;182703;0.0-4.0-1.2;true
2849;ImagesDirect/VR95.png;188;test;,;image-keyboard-response;190;186055;0.0-4.0-1.3;true
1553;ImagesTennis/TL105.png;188;test;,;image-keyboard-response;192;188112;0.0-4.0-1.4;true
1601;ImagesTennis/TR110.png;190;test;.;image-keyboard-response;194;190216;0.0-4.0-1.5;true
1369;ImagesDirect/VL102.5.png;188;test;,;image-keyboard-response;196;192087;0.0-4.0-1.6;true
1521;ImagesSoccer/VR97.5.png;188;test;,;image-keyboard-response;198;194112;0.0-4.0-1.7;true
1969;ImagesTennis/TL107.5.png;188;test;,;image-keyboard-response;200;196584;0.0-4.0-1.8;true
936;ImagesDirect/VR107.5.png;190;test;.;image-keyboard-response;202;198023;0.0-4.0-1.9;true
1114;ImagesSoccer/VR107.5.png;190;test;.;image-keyboard-response;204;199640;0.0-4.0-1.10;true
713;ImagesDirect/VL105.png;188;test;,;image-keyboard-response;206;200856;0.0-4.0-1.11;true
905;ImagesTennis/TL90.png;190;test;.;image-keyboard-response;208;202264;0.0-4.0-1.12;true
1665;ImagesTennis/TL102.5.png;190;test;,;image-keyboard-response;210;204432;0.0-4.0-1.13;false
1761;ImagesTennis/TR105.png;188;test;.;image-keyboard-response;212;206696;0.0-4.0-1.14;false
2997;ImagesDirect/VL95.png;190;test;.;image-keyboard-response;214;210196;0.0-4.0-1.15;true
1089;ImagesDirect/VR92.5.png;188;test;,;image-keyboard-response;216;211788;0.0-4.0-1.16;true
1242;ImagesDirect/VL97.5.png;188;test;.;image-keyboard-response;218;213532;0.0-4.0-1.17;false
857;ImagesDirect/VL100.png;188;test;.;image-keyboard-response;220;214892;0.0-4.0-1.18;false
7797;ImagesTennis/TR107.5.png;190;test;.;image-keyboard-response;222;223192;0.0-4.0-1.19;true
1522;ImagesDirect/VR100.png;188;test;.;image-keyboard-response;224;225216;0.0-4.0-1.20;false
818;ImagesSoccer/VL92.5.png;190;test;.;image-keyboard-response;226;226536;0.0-4.0-1.21;true
737;ImagesDirect/VL107.5.png;188;test;,;image-keyboard-response;228;227776;0.0-4.0-1.22;true
977;ImagesSoccer/VR110.png;190;test;.;image-keyboard-response;230;229256;0.0-4.0-1.23;true
881;ImagesSoccer/VR95.png;188;test;,;image-keyboard-response;232;230640;0.0-4.0-1.24;true
1249;ImagesSoccer/VR90.png;188;test;,;image-keyboard-response;234;232392;0.0-4.0-1.25;true
809;ImagesSoccer/VL107.5.png;188;test;,;image-keyboard-response;236;233704;0.0-4.0-1.26;true
1057;ImagesTennis/TL110.png;188;test;,;image-keyboard-response;238;235264;0.0-4.0-1.27;true
729;ImagesSoccer/VR102.5.png;190;test;.;image-keyboard-response;240;236496;0.0-4.0-1.28;true
1321;ImagesDirect/VR105.png;190;test;.;image-keyboard-response;242;238320;0.0-4.0-1.29;true
993;ImagesSoccer/VR92.5.png;188;test;,;image-keyboard-response;244;239816;0.0-4.0-1.30;true
944;ImagesTennis/TL97.5.png;190;test;.;image-keyboard-response;246;241264;0.0-4.0-1.31;true
689;ImagesTennis/TL95.png;190;test;.;image-keyboard-response;248;242457;0.0-4.0-1.32;true
889;ImagesDirect/VR102.5.png;190;test;.;image-keyboard-response;250;243848;0.0-4.0-1.33;true
649;ImagesDirect/VR110.png;190;test;.;image-keyboard-response;252;245001;0.0-4.0-1.34;true
1680;ImagesDirect/VL90.png;190;test;.;image-keyboard-response;254;247185;0.0-4.0-1.35;true
1160;ImagesTennis/TL100.png;190;test;.;image-keyboard-response;256;248849;0.0-4.0-1.36;true
1801;ImagesSoccer/VR105.png;190;test;.;image-keyboard-response;258;251153;0.0-4.0-1.37;true
1449;ImagesTennis/TR95.png;188;test;,;image-keyboard-response;260;253105;0.0-4.0-1.38;true
1473;ImagesDirect/VR97.5.png;188;test;,;image-keyboard-response;262;255081;0.0-4.0-1.39;true
4465;ImagesTennis/TR97.5.png;188;test;,;image-keyboard-response;264;260048;0.0-4.0-1.40;true
914;ImagesSoccer/VL95.png;190;test;.;image-keyboard-response;266;261464;0.0-4.0-1.41;true
1065;ImagesDirect/VL110.png;188;test;,;image-keyboard-response;268;263032;0.0-4.0-1.42;true
961;ImagesSoccer/VL110.png;188;test;,;image-keyboard-response;270;264496;0.0-4.0-1.43;true
1001;ImagesSoccer/VL100.png;190;test;.;image-keyboard-response;272;266000;0.0-4.0-1.44;true
2762;ImagesDirect/VL92.5.png;190;test;.;image-keyboard-response;274;269264;0.0-4.0-1.45;true
1553;ImagesDirect/VR90.png;188;test;,;image-keyboard-response;276;271320;0.0-4.0-1.46;true
769;ImagesTennis/TL92.5.png;190;test;.;image-keyboard-response;278;272592;0.0-4.0-1.47;true
817;ImagesTennis/TR90.png;188;test;,;image-keyboard-response;280;273912;0.0-4.0-1.48;true
729;ImagesTennis/TR92.5.png;188;test;,;image-keyboard-response;282;275144;0.0-4.0-1.49;true
873;ImagesTennis/TR102.5.png;190;test;.;image-keyboard-response;284;276520;0.0-4.0-1.50;true
3032;ImagesSoccer/VL97.5.png;188;test;.;image-keyboard-response;286;280055;0.0-4.0-1.51;false
641;ImagesSoccer/VL90.png;190;test;.;image-keyboard-response;288;281199;0.0-4.0-1.52;true
2913;ImagesSoccer/VR100.png;188;test;.;image-keyboard-response;290;284615;0.0-4.0-1.53;false
1041;ImagesDirect/VL110.png;188;test;,;image-keyboard-response;292;286160;0.0-4.0-1.54;true
2137;ImagesTennis/TL100.png;190;test;.;image-keyboard-response;294;288800;0.0-4.0-1.55;true
625;ImagesSoccer/VL105.png;188;test;,;image-keyboard-response;296;289928;0.0-4.0-1.56;true
1201;ImagesTennis/TR92.5.png;188;test;,;image-keyboard-response;298;291632;0.0-4.0-1.57;true
625;ImagesTennis/TL92.5.png;190;test;.;image-keyboard-response;300;292760;0.0-4.0-1.58;true
1056;ImagesTennis/TR105.png;190;test;.;image-keyboard-response;302;294320;0.0-4.0-1.59;true
946;ImagesDirect/VR100.png;190;test;.;image-keyboard-response;304;295768;0.0-4.0-1.60;true
1587;ImagesSoccer/VR90.png;188;test;,;image-keyboard-response;306;297856;0.0-4.0-1.61;true
1225;ImagesSoccer/VL97.5.png;190;test;.;image-keyboard-response;308;299584;0.0-4.0-1.62;true
1065;ImagesDirect/VL92.5.png;188;test;.;image-keyboard-response;310;301152;0.0-4.0-1.63;false
1377;ImagesTennis/TR110.png;190;test;.;image-keyboard-response;312;303032;0.0-4.0-1.64;true
1034;ImagesDirect/VR95.png;190;test;,;image-keyboard-response;314;304568;0.0-4.0-1.65;false
2457;ImagesSoccer/VL95.png;190;test;.;image-keyboard-response;316;307528;0.0-4.0-1.66;true
777;ImagesDirect/VL107.5.png;188;test;,;image-keyboard-response;318;308808;0.0-4.0-1.67;true
1449;ImagesTennis/TL110.png;188;test;,;image-keyboard-response;320;310760;0.0-4.0-1.68;true
1105;ImagesSoccer/VL110.png;188;test;,;image-keyboard-response;322;312368;0.0-4.0-1.69;true
970;ImagesDirect/VL105.png;188;test;,;image-keyboard-response;324;313840;0.0-4.0-1.70;true
585;ImagesDirect/VR102.5.png;190;test;.;image-keyboard-response;326;314928;0.0-4.0-1.71;true
1129;ImagesTennis/TR102.5.png;190;test;.;image-keyboard-response;328;316560;0.0-4.0-1.72;true
1073;ImagesDirect/VR105.png;190;test;.;image-keyboard-response;330;318136;0.0-4.0-1.73;true
3635;ImagesSoccer/VR100.png;190;test;.;image-keyboard-response;332;322274;0.0-4.0-1.74;true
1319;ImagesDirect/VR90.png;188;test;,;image-keyboard-response;334;324099;0.0-4.0-1.75;true
705;ImagesTennis/TL90.png;190;test;.;image-keyboard-response;336;325306;0.0-4.0-1.76;true
817;ImagesSoccer/VR105.png;190;test;.;image-keyboard-response;338;326626;0.0-4.0-1.77;true
649;ImagesSoccer/VL107.5.png;188;test;,;image-keyboard-response;340;327778;0.0-4.0-1.78;true
1001;ImagesTennis/TL105.png;188;test;,;image-keyboard-response;342;329282;0.0-4.0-1.79;true
633;ImagesSoccer/VL92.5.png;190;test;.;image-keyboard-response;344;330418;0.0-4.0-1.80;true
745;ImagesDirect/VR110.png;190;test;.;image-keyboard-response;346;331666;0.0-4.0-1.81;true
1009;ImagesDirect/VR92.5.png;188;test;,;image-keyboard-response;348;333179;0.0-4.0-1.82;true
801;ImagesTennis/TR95.png;188;test;,;image-keyboard-response;350;334483;0.0-4.0-1.83;true
905;ImagesSoccer/VR95.png;190;test;,;image-keyboard-response;352;335891;0.0-4.0-1.84;false
2080;ImagesDirect/VL97.5.png;190;test;.;image-keyboard-response;354;338475;0.0-4.0-1.85;true
608;ImagesSoccer/VR97.5.png;190;test;,;image-keyboard-response;356;339587;0.0-4.0-1.86;false
1801;ImagesTennis/TL102.5.png;188;test;,;image-keyboard-response;358;341891;0.0-4.0-1.87;true
610;ImagesSoccer/VR102.5.png;190;test;.;image-keyboard-response;360;343003;0.0-4.0-1.88;true
1113;ImagesTennis/TR100.png;188;test;.;image-keyboard-response;362;344619;0.0-4.0-1.89;false
945;ImagesSoccer/VL90.png;190;test;.;image-keyboard-response;364;346067;0.0-4.0-1.90;true
761;ImagesSoccer/VL100.png;188;test;.;image-keyboard-response;366;347331;0.0-4.0-1.91;false
993;ImagesTennis/TL95.png;190;test;.;image-keyboard-response;368;348827;0.0-4.0-1.92;true
809;ImagesDirect/VR107.5.png;190;test;.;image-keyboard-response;370;350139;0.0-4.0-1.93;true
769;ImagesSoccer/VR92.5.png;188;test;,;image-keyboard-response;372;351411;0.0-4.0-1.94;true
625;ImagesSoccer/VR107.5.png;190;test;.;image-keyboard-response;374;352539;0.0-4.0-1.95;true
633;ImagesTennis/TR90.png;188;test;,;image-keyboard-response;376;353675;0.0-4.0-1.96;true
945;ImagesTennis/TR107.5.png;190;test;.;image-keyboard-response;378;355123;0.0-4.0-1.97;true
1313;ImagesDirect/VL90.png;190;test;.;image-keyboard-response;380;356939;0.0-4.0-1.98;true
689;ImagesTennis/TR97.5.png;188;test;,;image-keyboard-response;382;358131;0.0-4.0-1.99;true
2089;ImagesSoccer/VL102.5.png;188;test;,;image-keyboard-response;384;360723;0.0-4.0-1.100;true
841;ImagesDirect/VL102.5.png;188;test;,;image-keyboard-response;386;362067;0.0-4.0-1.101;true
2009;ImagesDirect/VL100.png;188;test;.;image-keyboard-response;388;364579;0.0-4.0-1.102;false
2137;ImagesDirect/VL95.png;188;test;.;image-keyboard-response;390;367220;0.0-4.0-1.103;false
1465;ImagesDirect/VR97.5.png;188;test;,;image-keyboard-response;392;369188;0.0-4.0-1.104;true
1240;ImagesTennis/TL107.5.png;188;test;,;image-keyboard-response;394;370932;0.0-4.0-1.105;true
1185;ImagesTennis/TL97.5.png;190;test;.;image-keyboard-response;396;372620;0.0-4.0-1.106;true
2202;ImagesSoccer/VR110.png;190;test;.;image-keyboard-response;398;375324;0.0-4.0-1.107;true
1185;ImagesSoccer/VL95.png;188;test;.;image-keyboard-response;400;377012;0.0-4.0-1.108;false
1033;ImagesDirect/VL110.png;188;test;,;image-keyboard-response;402;378548;0.0-4.0-1.109;true
1818;ImagesSoccer/VL102.5.png;190;test;,;image-keyboard-response;404;380868;0.0-4.0-1.110;false
761;ImagesTennis/TR95.png;188;test;,;image-keyboard-response;406;382132;0.0-4.0-1.111;true
1049;ImagesTennis/TR100.png;190;test;.;image-keyboard-response;408;383684;0.0-4.0-1.112;true
1793;ImagesDirect/VL97.5.png;190;test;.;image-keyboard-response;410;385980;0.0-4.0-1.113;true
873;ImagesTennis/TR105.png;190;test;.;image-keyboard-response;412;387356;0.0-4.0-1.114;true
985;ImagesSoccer/VL97.5.png;190;test;.;image-keyboard-response;414;388844;0.0-4.0-1.115;true
634;ImagesTennis/TL95.png;190;test;.;image-keyboard-response;416;389980;0.0-4.0-1.116;true
1001;ImagesDirect/VR100.png;190;test;.;image-keyboard-response;418;391484;0.0-4.0-1.117;true
945;ImagesSoccer/VR92.5.png;188;test;,;image-keyboard-response;420;392932;0.0-4.0-1.118;true
689;ImagesTennis/TL92.5.png;190;test;.;image-keyboard-response;422;394124;0.0-4.0-1.119;true
1889;ImagesTennis/TR107.5.png;188;test;.;image-keyboard-response;424;396516;0.0-4.0-1.120;false
1161;ImagesDirect/VL102.5.png;188;test;,;image-keyboard-response;426;398180;0.0-4.0-1.121;true
617;ImagesSoccer/VR97.5.png;190;test;,;image-keyboard-response;428;399300;0.0-4.0-1.122;false
1152;ImagesTennis/TR97.5.png;190;test;,;image-keyboard-response;430;400958;0.0-4.0-1.123;false
799;ImagesDirect/VL107.5.png;188;test;,;image-keyboard-response;432;402261;0.0-4.0-1.124;true
696;ImagesSoccer/VL90.png;190;test;.;image-keyboard-response;434;403461;0.0-4.0-1.125;true
904;ImagesSoccer/VR102.5.png;190;test;.;image-keyboard-response;436;404869;0.0-4.0-1.126;true
1216;ImagesDirect/VR92.5.png;188;test;,;image-keyboard-response;438;406589;0.0-4.0-1.127;true
1457;ImagesDirect/VL100.png;188;test;.;image-keyboard-response;440;408548;0.0-4.0-1.128;false
938;ImagesSoccer/VR95.png;190;test;,;image-keyboard-response;442;409989;0.0-4.0-1.129;false
904;ImagesSoccer/VR100.png;190;test;.;image-keyboard-response;444;411396;0.0-4.0-1.130;true
930;ImagesSoccer/VL107.5.png;188;test;,;image-keyboard-response;446;412829;0.0-4.0-1.131;true
1153;ImagesTennis/TL110.png;190;test;,;image-keyboard-response;448;414485;0.0-4.0-1.132;false
641;ImagesTennis/TR90.png;188;test;,;image-keyboard-response;450;415629;0.0-4.0-1.133;true
577;ImagesDirect/VR107.5.png;190;test;.;image-keyboard-response;452;416709;0.0-4.0-1.134;true
929;ImagesDirect/VR95.png;188;test;,;image-keyboard-response;454;418141;0.0-4.0-1.135;true
537;ImagesTennis/TL90.png;190;test;.;image-keyboard-response;456;419181;0.0-4.0-1.136;true
817;ImagesTennis/TL102.5.png;188;test;,;image-keyboard-response;458;420501;0.0-4.0-1.137;true
561;ImagesTennis/TL100.png;190;test;.;image-keyboard-response;460;421565;0.0-4.0-1.138;true
769;ImagesSoccer/VR90.png;188;test;,;image-keyboard-response;462;422837;0.0-4.0-1.139;true
1537;ImagesSoccer/VR107.5.png;190;test;.;image-keyboard-response;464;424877;0.0-4.0-1.140;true
1433;ImagesSoccer/VL92.5.png;190;test;.;image-keyboard-response;466;426813;0.0-4.0-1.141;true
801;ImagesTennis/TR110.png;188;test;.;image-keyboard-response;468;428117;0.0-4.0-1.142;false
1177;ImagesSoccer/VL105.png;188;test;,;image-keyboard-response;470;429797;0.0-4.0-1.143;true
1762;ImagesDirect/VR90.png;188;test;,;image-keyboard-response;472;432061;0.0-4.0-1.144;true
2964;ImagesDirect/VL95.png;190;test;.;image-keyboard-response;474;435528;0.0-4.0-1.145;true
897;ImagesDirect/VL92.5.png;188;test;.;image-keyboard-response;476;436928;0.0-4.0-1.146;false
609;ImagesDirect/VR105.png;190;test;.;image-keyboard-response;478;438040;0.0-4.0-1.147;true
841;ImagesDirect/VL90.png;190;test;.;image-keyboard-response;480;439384;0.0-4.0-1.148;true
905;ImagesSoccer/VL100.png;188;test;.;image-keyboard-response;482;440792;0.0-4.0-1.149;false
897;ImagesDirect/VL105.png;188;test;,;image-keyboard-response;484;442192;0.0-4.0-1.150;true
1089;ImagesTennis/TL105.png;188;test;,;image-keyboard-response;486;443784;0.0-4.0-1.151;true
1937;ImagesTennis/TL97.5.png;190;test;.;image-keyboard-response;488;446224;0.0-4.0-1.152;true
1401;ImagesSoccer/VR105.png;190;test;.;image-keyboard-response;490;448128;0.0-4.0-1.153;true
713;ImagesSoccer/VR110.png;190;test;.;image-keyboard-response;492;449344;0.0-4.0-1.154;true
1626;ImagesDirect/VR97.5.png;190;test;,;image-keyboard-response;494;451472;0.0-4.0-1.155;false
744;ImagesSoccer/VL110.png;188;test;,;image-keyboard-response;496;452720;0.0-4.0-1.156;true
769;ImagesDirect/VR110.png;190;test;.;image-keyboard-response;498;453992;0.0-4.0-1.157;true
1761;ImagesTennis/TL107.5.png;188;test;,;image-keyboard-response;500;456256;0.0-4.0-1.158;true
1272;ImagesDirect/VR102.5.png;190;test;.;image-keyboard-response;502;458033;0.0-4.0-1.159;true
872;ImagesTennis/TR102.5.png;188;test;.;image-keyboard-response;504;459408;0.0-4.0-1.160;false
1767;ImagesTennis/TR92.5.png;188;test;,;image-keyboard-response;506;461681;0.0-4.0-1.161;true
1633;ImagesTennis/TL102.5.png;190;test;,;image-keyboard-response;508;463817;0.0-4.0-1.162;false
1841;ImagesSoccer/VL95.png;190;test;.;image-keyboard-response;510;466161;0.0-4.0-1.163;true
2577;ImagesDirect/VL92.5.png;188;test;.;image-keyboard-response;512;469241;0.0-4.0-1.164;false
960;ImagesSoccer/VL102.5.png;188;test;,;image-keyboard-response;514;470705;0.0-4.0-1.165;true
698;ImagesSoccer/VR97.5.png;190;test;,;image-keyboard-response;516;471905;0.0-4.0-1.166;false
874;ImagesSoccer/VR105.png;190;test;.;image-keyboard-response;518;473281;0.0-4.0-1.167;true
2185;ImagesTennis/TR107.5.png;188;test;.;image-keyboard-response;520;475969;0.0-4.0-1.168;false
794;ImagesSoccer/VR102.5.png;190;test;.;image-keyboard-response;522;477265;0.0-4.0-1.169;true
721;ImagesTennis/TL90.png;190;test;.;image-keyboard-response;524;478489;0.0-4.0-1.170;true
729;ImagesTennis/TL97.5.png;190;test;.;image-keyboard-response;526;479721;0.0-4.0-1.171;true
849;ImagesSoccer/VR107.5.png;190;test;.;image-keyboard-response;528;481073;0.0-4.0-1.172;true
1369;ImagesTennis/TL95.png;190;test;.;image-keyboard-response;530;482945;0.0-4.0-1.173;true
1081;ImagesSoccer/VR90.png;188;test;,;image-keyboard-response;532;484529;0.0-4.0-1.174;true
849;ImagesTennis/TR95.png;188;test;,;image-keyboard-response;534;485881;0.0-4.0-1.175;true
729;ImagesSoccer/VL92.5.png;190;test;.;image-keyboard-response;536;487113;0.0-4.0-1.176;true
841;ImagesSoccer/VL90.png;190;test;.;image-keyboard-response;538;488457;0.0-4.0-1.177;true
801;ImagesTennis/TL110.png;188;test;,;image-keyboard-response;540;489761;0.0-4.0-1.178;true
825;ImagesTennis/TR105.png;190;test;.;image-keyboard-response;542;491090;0.0-4.0-1.179;true
905;ImagesDirect/VR90.png;190;test;,;image-keyboard-response;544;492497;0.0-4.0-1.180;false
729;ImagesTennis/TR90.png;188;test;,;image-keyboard-response;546;493730;0.0-4.0-1.181;true
1033;ImagesDirect/VL100.png;188;test;.;image-keyboard-response;548;495266;0.0-4.0-1.182;false
2385;ImagesTennis/TR100.png;188;test;.;image-keyboard-response;550;498154;0.0-4.0-1.183;false
3630;ImagesDirect/VL90.png;190;test;.;image-keyboard-response;552;502287;0.0-4.0-1.184;true
937;ImagesTennis/TR102.5.png;188;test;.;image-keyboard-response;554;503727;0.0-4.0-1.185;false
945;ImagesSoccer/VR95.png;190;test;,;image-keyboard-response;556;505175;0.0-4.0-1.186;false
673;ImagesDirect/VR107.5.png;190;test;.;image-keyboard-response;558;506351;0.0-4.0-1.187;true
1193;ImagesDirect/VR110.png;190;test;.;image-keyboard-response;560;508048;0.0-4.0-1.188;true
2417;ImagesDirect/VR97.5.png;188;test;,;image-keyboard-response;562;510968;0.0-4.0-1.189;true
1408;ImagesSoccer/VL110.png;188;test;,;image-keyboard-response;564;512880;0.0-4.0-1.190;true
3421;ImagesSoccer/VL100.png;188;test;.;image-keyboard-response;566;516804;0.0-4.0-1.191;false
1657;ImagesDirect/VR92.5.png;188;test;,;image-keyboard-response;568;518964;0.0-4.0-1.192;true
1505;ImagesTennis/TL105.png;190;test;,;image-keyboard-response;570;520972;0.0-4.0-1.193;false
601;ImagesTennis/TL92.5.png;190;test;.;image-keyboard-response;572;522076;0.0-4.0-1.194;true
681;ImagesTennis/TL107.5.png;188;test;,;image-keyboard-response;574;523260;0.0-4.0-1.195;true
721;ImagesSoccer/VL105.png;188;test;,;image-keyboard-response;576;524484;0.0-4.0-1.196;true
1025;ImagesTennis/TR97.5.png;188;test;,;image-keyboard-response;578;526012;0.0-4.0-1.197;true
881;ImagesDirect/VL107.5.png;188;test;,;image-keyboard-response;580;527396;0.0-4.0-1.198;true
697;ImagesDirect/VL95.png;190;test;.;image-keyboard-response;582;528596;0.0-4.0-1.199;true
616;ImagesDirect/VL110.png;188;test;,;image-keyboard-response;584;529716;0.0-4.0-1.200;true
561;ImagesDirect/VR100.png;190;test;.;image-keyboard-response;586;530780;0.0-4.0-1.201;true
689;ImagesTennis/TL100.png;190;test;.;image-keyboard-response;588;531972;0.0-4.0-1.202;true
2256;ImagesDirect/VL97.5.png;188;test;.;image-keyboard-response;590;534733;0.0-4.0-1.203;false
1594;ImagesSoccer/VL107.5.png;188;test;,;image-keyboard-response;592;536829;0.0-4.0-1.204;true
1161;ImagesDirect/VL105.png;188;test;,;image-keyboard-response;594;538493;0.0-4.0-1.205;true
1441;ImagesDirect/VR102.5.png;190;test;.;image-keyboard-response;596;540437;0.0-4.0-1.206;true
1241;ImagesDirect/VL102.5.png;190;test;,;image-keyboard-response;598;542181;0.0-4.0-1.207;false
673;ImagesTennis/TR92.5.png;188;test;,;image-keyboard-response;600;543357;0.0-4.0-1.208;true
897;ImagesDirect/VR105.png;190;test;.;image-keyboard-response;602;544757;0.0-4.0-1.209;true
3201;ImagesSoccer/VR100.png;188;test;.;image-keyboard-response;604;548462;0.0-4.0-1.210;false
704;ImagesSoccer/VR110.png;190;test;.;image-keyboard-response;606;549670;0.0-4.0-1.211;true
2457;ImagesDirect/VR95.png;188;test;,;image-keyboard-response;608;552630;0.0-4.0-1.212;true
1121;ImagesSoccer/VR92.5.png;188;test;,;image-keyboard-response;610;554254;0.0-4.0-1.213;true
1081;ImagesSoccer/VL97.5.png;190;test;.;image-keyboard-response;612;555838;0.0-4.0-1.214;true
1329;ImagesTennis/TR110.png;190;test;.;image-keyboard-response;614;557670;0.0-4.0-1.215;true
1281;ImagesTennis/TR107.5.png;190;test;.;image-keyboard-response;616;559454;0.0-4.0-1.216;true
2217;ImagesTennis/TL100.png;190;test;.;image-keyboard-response;618;562174;0.0-4.0-1.217;true
2297;ImagesDirect/VR92.5.png;188;test;,;image-keyboard-response;620;564974;0.0-4.0-1.218;true
721;ImagesDirect/VR102.5.png;190;test;.;image-keyboard-response;622;566198;0.0-4.0-1.219;true
1273;ImagesTennis/TL97.5.png;190;test;.;image-keyboard-response;624;567974;0.0-4.0-1.220;true
1121;ImagesTennis/TR90.png;188;test;,;image-keyboard-response;626;569598;0.0-4.0-1.221;true
881;ImagesSoccer/VL107.5.png;188;test;,;image-keyboard-response;628;570982;0.0-4.0-1.222;true
745;ImagesSoccer/VR105.png;190;test;.;image-keyboard-response;630;572230;0.0-4.0-1.223;true
1241;ImagesTennis/TR100.png;188;test;.;image-keyboard-response;632;573974;0.0-4.0-1.224;false
1393;ImagesDirect/VL102.5.png;188;test;,;image-keyboard-response;634;575870;0.0-4.0-1.225;true
857;ImagesDirect/VL90.png;190;test;.;image-keyboard-response;636;577230;0.0-4.0-1.226;true
1649;ImagesSoccer/VR92.5.png;188;test;,;image-keyboard-response;638;579382;0.0-4.0-1.227;true
832;ImagesSoccer/VL102.5.png;188;test;,;image-keyboard-response;640;580718;0.0-4.0-1.228;true
1522;ImagesDirect/VL95.png;188;test;.;image-keyboard-response;642;582743;0.0-4.0-1.229;false
1216;ImagesTennis/TR95.png;188;test;,;image-keyboard-response;644;584463;0.0-4.0-1.230;true
1432;ImagesTennis/TR97.5.png;188;test;,;image-keyboard-response;646;586398;0.0-4.0-1.231;true
746;ImagesDirect/VL105.png;188;test;,;image-keyboard-response;648;587647;0.0-4.0-1.232;true
680;ImagesSoccer/VL90.png;190;test;.;image-keyboard-response;650;588831;0.0-4.0-1.233;true
1192;ImagesTennis/TL110.png;188;test;,;image-keyboard-response;652;590527;0.0-4.0-1.234;true
1201;ImagesDirect/VR90.png;190;test;,;image-keyboard-response;654;592231;0.0-4.0-1.235;false
817;ImagesSoccer/VL95.png;188;test;.;image-keyboard-response;656;593551;0.0-4.0-1.236;false
616;ImagesDirect/VR105.png;190;test;.;image-keyboard-response;658;594670;0.0-4.0-1.237;true
1049;ImagesTennis/TL95.png;190;test;.;image-keyboard-response;660;596223;0.0-4.0-1.238;true
1121;ImagesDirect/VR97.5.png;190;test;,;image-keyboard-response;662;597847;0.0-4.0-1.239;false
586;ImagesSoccer/VL110.png;188;test;,;image-keyboard-response;664;598935;0.0-4.0-1.240;true
5384;ImagesSoccer/VL105.png;188;test;,;image-keyboard-response;666;604822;0.0-4.0-1.241;true
769;ImagesSoccer/VR107.5.png;190;test;.;image-keyboard-response;668;606095;0.0-4.0-1.242;true
4031;ImagesSoccer/VR90.png;188;test;,;image-keyboard-response;670;610629;0.0-4.0-1.243;true
5957;ImagesDirect/VL97.5.png;190;test;.;image-keyboard-response;672;617090;0.0-4.0-1.244;true
1536;ImagesTennis/TR102.5.png;190;test;.;image-keyboard-response;674;619130;0.0-4.0-1.245;true
745;ImagesSoccer/VR102.5.png;190;test;.;image-keyboard-response;676;620378;0.0-4.0-1.246;true
872;ImagesTennis/TL105.png;188;test;,;image-keyboard-response;678;621754;0.0-4.0-1.247;true
1210;ImagesTennis/TR110.png;190;test;.;image-keyboard-response;680;623466;0.0-4.0-1.248;true
585;ImagesTennis/TL107.5.png;188;test;,;image-keyboard-response;682;624554;0.0-4.0-1.249;true
594;ImagesDirect/VR107.5.png;190;test;.;image-keyboard-response;684;625650;0.0-4.0-1.250;true
722;ImagesDirect/VL110.png;188;test;,;image-keyboard-response;686;626874;0.0-4.0-1.251;true
3931;ImagesDirect/VL92.5.png;190;test;.;image-keyboard-response;688;631308;0.0-4.0-1.252;true
768;ImagesSoccer/VR100.png;190;test;.;image-keyboard-response;690;632580;0.0-4.0-1.253;true
712;ImagesTennis/TR105.png;188;test;.;image-keyboard-response;692;633796;0.0-4.0-1.254;false
576;ImagesDirect/VR110.png;190;test;.;image-keyboard-response;694;634876;0.0-4.0-1.255;true
633;ImagesDirect/VL100.png;188;test;.;image-keyboard-response;696;636012;0.0-4.0-1.256;false
728;ImagesTennis/TL90.png;190;test;.;image-keyboard-response;698;637245;0.0-4.0-1.257;true
1737;ImagesSoccer/VR95.png;188;test;,;image-keyboard-response;700;639485;0.0-4.0-1.258;true
824;ImagesSoccer/VR97.5.png;190;test;,;image-keyboard-response;702;640813;0.0-4.0-1.259;false
930;ImagesSoccer/VL92.5.png;190;test;.;image-keyboard-response;704;642245;0.0-4.0-1.260;true
1897;ImagesSoccer/VL97.5.png;190;test;.;image-keyboard-response;706;644645;0.0-4.0-1.261;true
593;ImagesSoccer/VR110.png;190;test;.;image-keyboard-response;708;645741;0.0-4.0-1.262;true
657;ImagesTennis/TR92.5.png;188;test;,;image-keyboard-response;710;646901;0.0-4.0-1.263;true
585;ImagesTennis/TL102.5.png;190;test;,;image-keyboard-response;712;647989;0.0-4.0-1.264;false
625;ImagesDirect/VL107.5.png;188;test;,;image-keyboard-response;714;649117;0.0-4.0-1.265;true
618;ImagesSoccer/VL100.png;190;test;.;image-keyboard-response;716;650237;0.0-4.0-1.266;true
2689;ImagesDirect/VR95.png;190;test;,;image-keyboard-response;718;653429;0.0-4.0-1.267;false
721;ImagesTennis/TL92.5.png;190;test;.;image-keyboard-response;720;654653;0.0-4.0-1.268;true
633;ImagesDirect/VR100.png;190;test;.;image-keyboard-response;722;655789;0.0-4.0-1.269;true
