rt,stimulus,key_press,test_part,correct_response,trial_type,trial_index,time_elapsed,internal_node_id,correct
2805,ImagesCoins/10R105.png,190,test,.,image-keyboard-response,4,44897,0.0-3.0-1.0,TRUE
1078,ImagesCoins/10L92.5.png,190,test,.,image-keyboard-response,6,46480,0.0-3.0-1.1,TRUE
1176,ImagesCoins/10R92.5.png,188,test,",",image-keyboard-response,8,48159,0.0-3.0-1.2,TRUE
3455,ImagesCoins/10R102.5.png,190,test,.,image-keyboard-response,10,52118,0.0-3.0-1.3,TRUE
1252,ImagesCoins/10R110.png,190,test,.,image-keyboard-response,12,53874,0.0-3.0-1.4,TRUE
1007,ImagesCoins/10R100.png,190,test,.,image-keyboard-response,14,55384,0.0-3.0-1.5,TRUE
1132,ImagesCoins/10L102.5.png,188,test,",",image-keyboard-response,16,57020,0.0-3.0-1.6,TRUE
1226,ImagesCoins/10L100.png,190,test,.,image-keyboard-response,18,58749,0.0-3.0-1.7,TRUE
849,ImagesCoins/10L107.5.png,188,test,",",image-keyboard-response,20,60103,0.0-3.0-1.8,TRUE
756,ImagesCoins/10L110.png,188,test,",",image-keyboard-response,22,61362,0.0-3.0-1.9,TRUE
915,ImagesCoins/10L97.5.png,190,test,.,image-keyboard-response,24,62781,0.0-3.0-1.10,TRUE
946,ImagesCoins/10R95.png,188,test,",",image-keyboard-response,26,64231,0.0-3.0-1.11,TRUE
691,ImagesCoins/10R107.5.png,190,test,.,image-keyboard-response,28,65426,0.0-3.0-1.12,TRUE
1109,ImagesCoins/10R90.png,188,test,",",image-keyboard-response,30,67038,0.0-3.0-1.13,TRUE
715,ImagesCoins/10L90.png,190,test,.,image-keyboard-response,32,68257,0.0-3.0-1.14,TRUE
1930,ImagesCoins/10R97.5.png,188,test,",",image-keyboard-response,34,70691,0.0-3.0-1.15,TRUE
1377,ImagesCoins/10L105.png,188,test,",",image-keyboard-response,36,72573,0.0-3.0-1.16,TRUE
979,ImagesCoins/10L95.png,190,test,.,image-keyboard-response,38,74056,0.0-3.0-1.17,TRUE
795,ImagesCoins/10L100.png,190,test,.,image-keyboard-response,40,75356,0.0-3.0-1.18,TRUE
621,ImagesCoins/10R90.png,188,test,",",image-keyboard-response,42,76481,0.0-3.0-1.19,TRUE
1081,ImagesCoins/10L97.5.png,190,test,.,image-keyboard-response,44,78066,0.0-3.0-1.20,TRUE
589,ImagesCoins/10L90.png,190,test,.,image-keyboard-response,46,79160,0.0-3.0-1.21,TRUE
693,ImagesCoins/10R107.5.png,190,test,.,image-keyboard-response,48,80357,0.0-3.0-1.22,TRUE
896,ImagesCoins/10L95.png,190,test,.,image-keyboard-response,50,81756,0.0-3.0-1.23,TRUE
919,ImagesCoins/10R95.png,190,test,",",image-keyboard-response,52,83179,0.0-3.0-1.24,FALSE
603,ImagesCoins/10R110.png,190,test,.,image-keyboard-response,54,84287,0.0-3.0-1.25,TRUE
838,ImagesCoins/10R92.5.png,188,test,",",image-keyboard-response,56,85630,0.0-3.0-1.26,TRUE
529,ImagesCoins/10R105.png,190,test,.,image-keyboard-response,58,86664,0.0-3.0-1.27,TRUE
533,ImagesCoins/10L110.png,188,test,",",image-keyboard-response,60,87701,0.0-3.0-1.28,TRUE
2233,ImagesCoins/10L102.5.png,188,test,",",image-keyboard-response,62,90438,0.0-3.0-1.29,TRUE
486,ImagesCoins/10L105.png,188,test,",",image-keyboard-response,64,91426,0.0-3.0-1.30,TRUE
756,ImagesCoins/10R97.5.png,190,test,",",image-keyboard-response,66,92686,0.0-3.0-1.31,FALSE
487,ImagesCoins/10L107.5.png,188,test,",",image-keyboard-response,68,93676,0.0-3.0-1.32,TRUE
582,ImagesCoins/10L92.5.png,190,test,.,image-keyboard-response,70,94767,0.0-3.0-1.33,TRUE
556,ImagesCoins/10R102.5.png,190,test,.,image-keyboard-response,72,95827,0.0-3.0-1.34,TRUE
544,ImagesCoins/10R100.png,190,test,.,image-keyboard-response,74,96876,0.0-3.0-1.35,TRUE
3675,ImagesCoins/10L97.5.png,188,test,.,image-keyboard-response,76,101055,0.0-3.0-1.36,FALSE
699,ImagesCoins/10L102.5.png,188,test,",",image-keyboard-response,78,102259,0.0-3.0-1.37,TRUE
492,ImagesCoins/10L110.png,188,test,",",image-keyboard-response,80,103256,0.0-3.0-1.38,TRUE
490,ImagesCoins/10R107.5.png,190,test,.,image-keyboard-response,82,104251,0.0-3.0-1.39,TRUE
495,ImagesCoins/10R100.png,190,test,.,image-keyboard-response,84,105250,0.0-3.0-1.40,TRUE
651,ImagesCoins/10L92.5.png,190,test,.,image-keyboard-response,86,106405,0.0-3.0-1.41,TRUE
550,ImagesCoins/10R110.png,190,test,.,image-keyboard-response,88,107459,0.0-3.0-1.42,TRUE
565,ImagesCoins/10L90.png,190,test,.,image-keyboard-response,90,108530,0.0-3.0-1.43,TRUE
539,ImagesCoins/10R97.5.png,188,test,",",image-keyboard-response,92,109572,0.0-3.0-1.44,TRUE
635,ImagesCoins/10R105.png,190,test,.,image-keyboard-response,94,110710,0.0-3.0-1.45,TRUE
658,ImagesCoins/10R90.png,188,test,",",image-keyboard-response,96,111871,0.0-3.0-1.46,TRUE
500,ImagesCoins/10L105.png,188,test,",",image-keyboard-response,98,112874,0.0-3.0-1.47,TRUE
773,ImagesCoins/10R102.5.png,190,test,.,image-keyboard-response,100,114151,0.0-3.0-1.48,TRUE
798,ImagesCoins/10R92.5.png,188,test,",",image-keyboard-response,102,115453,0.0-3.0-1.49,TRUE
2112,ImagesCoins/10L100.png,188,test,.,image-keyboard-response,104,118069,0.0-3.0-1.50,FALSE
516,ImagesCoins/10L107.5.png,188,test,",",image-keyboard-response,106,119090,0.0-3.0-1.51,TRUE
570,ImagesCoins/10R95.png,188,test,",",image-keyboard-response,108,120164,0.0-3.0-1.52,TRUE
1027,ImagesCoins/10L95.png,190,test,.,image-keyboard-response,110,121696,0.0-3.0-1.53,TRUE
478,ImagesCoins/10R110.png,190,test,.,image-keyboard-response,112,122677,0.0-3.0-1.54,TRUE
541,ImagesCoins/10R97.5.png,190,test,",",image-keyboard-response,114,123722,0.0-3.0-1.55,FALSE
598,ImagesCoins/10R90.png,188,test,",",image-keyboard-response,116,124824,0.0-3.0-1.56,TRUE
462,ImagesCoins/10L105.png,188,test,",",image-keyboard-response,118,125790,0.0-3.0-1.57,TRUE
506,ImagesCoins/10L90.png,190,test,.,image-keyboard-response,120,126799,0.0-3.0-1.58,TRUE
537,ImagesCoins/10L97.5.png,188,test,.,image-keyboard-response,122,127840,0.0-3.0-1.59,FALSE
1013,ImagesCoins/10L95.png,190,test,.,image-keyboard-response,124,129357,0.0-3.0-1.60,TRUE
452,ImagesCoins/10L110.png,188,test,",",image-keyboard-response,126,130313,0.0-3.0-1.61,TRUE
995,ImagesCoins/10R95.png,188,test,",",image-keyboard-response,128,131813,0.0-3.0-1.62,TRUE
526,ImagesCoins/10R107.5.png,190,test,.,image-keyboard-response,130,132843,0.0-3.0-1.63,TRUE
557,ImagesCoins/10R102.5.png,190,test,.,image-keyboard-response,132,133904,0.0-3.0-1.64,TRUE
473,ImagesCoins/10L92.5.png,190,test,.,image-keyboard-response,134,134882,0.0-3.0-1.65,TRUE
560,ImagesCoins/10L107.5.png,188,test,",",image-keyboard-response,136,135945,0.0-3.0-1.66,TRUE
549,ImagesCoins/10R92.5.png,188,test,",",image-keyboard-response,138,136998,0.0-3.0-1.67,TRUE
730,ImagesCoins/10R105.png,190,test,.,image-keyboard-response,140,138231,0.0-3.0-1.68,TRUE
479,ImagesCoins/10L100.png,188,test,.,image-keyboard-response,142,139214,0.0-3.0-1.69,FALSE
572,ImagesCoins/10L102.5.png,188,test,",",image-keyboard-response,144,140291,0.0-3.0-1.70,TRUE
557,ImagesCoins/10R100.png,190,test,.,image-keyboard-response,146,141351,0.0-3.0-1.71,TRUE
541,ImagesCoins/10R95.png,190,test,",",image-keyboard-response,148,142395,0.0-3.0-1.72,FALSE
786,ImagesCoins/10R105.png,190,test,.,image-keyboard-response,150,143687,0.0-3.0-1.73,TRUE
470,ImagesCoins/10L102.5.png,188,test,",",image-keyboard-response,152,144661,0.0-3.0-1.74,TRUE
806,ImagesCoins/10L92.5.png,190,test,.,image-keyboard-response,154,145973,0.0-3.0-1.75,TRUE
1139,ImagesCoins/10R110.png,190,test,.,image-keyboard-response,156,147617,0.0-3.0-1.76,TRUE
1349,ImagesCoins/10L100.png,190,test,.,image-keyboard-response,158,149476,0.0-3.0-1.77,TRUE
399,ImagesCoins/10L110.png,188,test,",",image-keyboard-response,160,150379,0.0-3.0-1.78,TRUE
1279,ImagesCoins/10R100.png,190,test,.,image-keyboard-response,162,152161,0.0-3.0-1.79,TRUE
801,ImagesCoins/10R97.5.png,188,test,",",image-keyboard-response,164,153466,0.0-3.0-1.80,TRUE
1144,ImagesCoins/10L95.png,190,test,.,image-keyboard-response,166,155114,0.0-3.0-1.81,TRUE
688,ImagesCoins/10L97.5.png,190,test,.,image-keyboard-response,168,156305,0.0-3.0-1.82,TRUE
524,ImagesCoins/10L90.png,190,test,.,image-keyboard-response,170,157334,0.0-3.0-1.83,TRUE
565,ImagesCoins/10R90.png,188,test,",",image-keyboard-response,172,158404,0.0-3.0-1.84,TRUE
911,ImagesCoins/10R107.5.png,188,test,.,image-keyboard-response,174,159819,0.0-3.0-1.85,FALSE
856,ImagesCoins/10R92.5.png,188,test,",",image-keyboard-response,176,161178,0.0-3.0-1.86,TRUE
2214,ImagesCoins/10L107.5.png,188,test,",",image-keyboard-response,178,163896,0.0-3.0-1.87,TRUE
1130,ImagesCoins/10L105.png,190,test,",",image-keyboard-response,180,165530,0.0-3.0-1.88,FALSE
1445,ImagesCoins/10R102.5.png,188,test,.,image-keyboard-response,182,167479,0.0-3.0-1.89,FALSE
1907,ImagesSoccer/VL97.5.png,188,test,.,image-keyboard-response,184,169891,0.0-4.0-1.0,FALSE
1300,ImagesDirect/VL102.5.png,188,test,",",image-keyboard-response,186,171696,0.0-4.0-1.1,TRUE
1032,ImagesDirect/VR105.png,190,test,.,image-keyboard-response,188,173231,0.0-4.0-1.2,TRUE
1033,ImagesTennis/TR102.5.png,190,test,.,image-keyboard-response,190,174769,0.0-4.0-1.3,TRUE
1006,ImagesSoccer/VL100.png,188,test,.,image-keyboard-response,192,176279,0.0-4.0-1.4,FALSE
1321,ImagesDirect/VL100.png,188,test,.,image-keyboard-response,194,178103,0.0-4.0-1.5,FALSE
2444,ImagesDirect/VL97.5.png,188,test,.,image-keyboard-response,196,181052,0.0-4.0-1.6,FALSE
840,ImagesDirect/VL110.png,188,test,",",image-keyboard-response,198,182394,0.0-4.0-1.7,TRUE
602,ImagesSoccer/VR110.png,190,test,.,image-keyboard-response,200,183499,0.0-4.0-1.8,TRUE
1017,ImagesDirect/VL105.png,188,test,",",image-keyboard-response,202,185019,0.0-4.0-1.9,TRUE
1035,ImagesDirect/VR90.png,188,test,",",image-keyboard-response,204,186557,0.0-4.0-1.10,TRUE
727,ImagesDirect/VR110.png,190,test,.,image-keyboard-response,206,187788,0.0-4.0-1.11,TRUE
781,ImagesDirect/VR107.5.png,190,test,.,image-keyboard-response,208,189073,0.0-4.0-1.12,TRUE
1163,ImagesTennis/TL92.5.png,190,test,.,image-keyboard-response,210,190738,0.0-4.0-1.13,TRUE
940,ImagesTennis/TR107.5.png,190,test,.,image-keyboard-response,212,192182,0.0-4.0-1.14,TRUE
1310,ImagesDirect/VR95.png,188,test,",",image-keyboard-response,214,193996,0.0-4.0-1.15,TRUE
736,ImagesTennis/TL100.png,188,test,.,image-keyboard-response,216,195235,0.0-4.0-1.16,FALSE
749,ImagesSoccer/VR92.5.png,190,test,",",image-keyboard-response,218,196488,0.0-4.0-1.17,FALSE
1361,ImagesDirect/VL90.png,190,test,.,image-keyboard-response,220,198354,0.0-4.0-1.18,TRUE
1704,ImagesTennis/TR95.png,188,test,",",image-keyboard-response,222,200562,0.0-4.0-1.19,TRUE
891,ImagesTennis/TR105.png,190,test,.,image-keyboard-response,224,201958,0.0-4.0-1.20,TRUE
838,ImagesTennis/TL110.png,188,test,",",image-keyboard-response,226,203298,0.0-4.0-1.21,TRUE
922,ImagesTennis/TR100.png,190,test,.,image-keyboard-response,228,204724,0.0-4.0-1.22,TRUE
1435,ImagesDirect/VL92.5.png,190,test,.,image-keyboard-response,230,206663,0.0-4.0-1.23,TRUE
584,ImagesSoccer/VR102.5.png,190,test,.,image-keyboard-response,232,207749,0.0-4.0-1.24,TRUE
585,ImagesSoccer/VL110.png,188,test,",",image-keyboard-response,234,208838,0.0-4.0-1.25,TRUE
1104,ImagesDirect/VR100.png,190,test,.,image-keyboard-response,236,210446,0.0-4.0-1.26,TRUE
894,ImagesTennis/TR90.png,188,test,",",image-keyboard-response,238,211845,0.0-4.0-1.27,TRUE
1017,ImagesSoccer/VR97.5.png,190,test,",",image-keyboard-response,240,213364,0.0-4.0-1.28,FALSE
662,ImagesSoccer/VR105.png,190,test,.,image-keyboard-response,242,214530,0.0-4.0-1.29,TRUE
815,ImagesDirect/VR92.5.png,188,test,",",image-keyboard-response,244,215849,0.0-4.0-1.30,TRUE
1466,ImagesSoccer/VL95.png,190,test,.,image-keyboard-response,246,217817,0.0-4.0-1.31,TRUE
1240,ImagesSoccer/VR95.png,188,test,",",image-keyboard-response,248,219561,0.0-4.0-1.32,TRUE
760,ImagesTennis/TR110.png,190,test,.,image-keyboard-response,250,220825,0.0-4.0-1.33,TRUE
939,ImagesDirect/VL107.5.png,188,test,",",image-keyboard-response,252,222268,0.0-4.0-1.34,TRUE
981,ImagesTennis/TL102.5.png,188,test,",",image-keyboard-response,254,223753,0.0-4.0-1.35,TRUE
1208,ImagesDirect/VR102.5.png,190,test,.,image-keyboard-response,256,225464,0.0-4.0-1.36,TRUE
2116,ImagesDirect/VL95.png,188,test,.,image-keyboard-response,258,228084,0.0-4.0-1.37,FALSE
1087,ImagesSoccer/VR100.png,190,test,.,image-keyboard-response,260,229675,0.0-4.0-1.38,TRUE
602,ImagesTennis/TL95.png,188,test,.,image-keyboard-response,262,230782,0.0-4.0-1.39,FALSE
831,ImagesTennis/TR97.5.png,190,test,",",image-keyboard-response,264,232117,0.0-4.0-1.40,FALSE
708,ImagesSoccer/VL90.png,190,test,.,image-keyboard-response,266,233329,0.0-4.0-1.41,TRUE
689,ImagesSoccer/VL107.5.png,188,test,",",image-keyboard-response,268,234521,0.0-4.0-1.42,TRUE
1565,ImagesSoccer/VL102.5.png,188,test,",",image-keyboard-response,270,236588,0.0-4.0-1.43,TRUE
722,ImagesTennis/TL105.png,188,test,",",image-keyboard-response,272,237814,0.0-4.0-1.44,TRUE
631,ImagesSoccer/VL105.png,188,test,",",image-keyboard-response,274,238949,0.0-4.0-1.45,TRUE
662,ImagesSoccer/VR107.5.png,190,test,.,image-keyboard-response,276,240114,0.0-4.0-1.46,TRUE
929,ImagesTennis/TL90.png,190,test,.,image-keyboard-response,278,241546,0.0-4.0-1.47,TRUE
780,ImagesTennis/TR92.5.png,188,test,",",image-keyboard-response,280,242831,0.0-4.0-1.48,TRUE
691,ImagesSoccer/VL92.5.png,190,test,.,image-keyboard-response,282,244026,0.0-4.0-1.49,TRUE
633,ImagesTennis/TL107.5.png,188,test,",",image-keyboard-response,284,245165,0.0-4.0-1.50,TRUE
931,ImagesTennis/TL97.5.png,190,test,.,image-keyboard-response,286,246599,0.0-4.0-1.51,TRUE
1560,ImagesSoccer/VR90.png,188,test,",",image-keyboard-response,288,248662,0.0-4.0-1.52,TRUE
2304,ImagesDirect/VR97.5.png,190,test,",",image-keyboard-response,290,251470,0.0-4.0-1.53,FALSE
493,ImagesSoccer/VL90.png,190,test,.,image-keyboard-response,292,252469,0.0-4.0-1.54,TRUE
552,ImagesTennis/TR107.5.png,190,test,.,image-keyboard-response,294,253524,0.0-4.0-1.55,TRUE
597,ImagesDirect/VR105.png,190,test,.,image-keyboard-response,296,254626,0.0-4.0-1.56,TRUE
925,ImagesDirect/VL92.5.png,188,test,.,image-keyboard-response,298,256054,0.0-4.0-1.57,FALSE
511,ImagesSoccer/VR95.png,190,test,",",image-keyboard-response,300,257069,0.0-4.0-1.58,FALSE
504,ImagesSoccer/VR100.png,190,test,.,image-keyboard-response,302,258076,0.0-4.0-1.59,TRUE
451,ImagesSoccer/VL102.5.png,188,test,",",image-keyboard-response,304,259033,0.0-4.0-1.60,TRUE
786,ImagesDirect/VR92.5.png,188,test,",",image-keyboard-response,306,260322,0.0-4.0-1.61,TRUE
512,ImagesSoccer/VL105.png,188,test,",",image-keyboard-response,308,261338,0.0-4.0-1.62,TRUE
599,ImagesTennis/TL95.png,188,test,.,image-keyboard-response,310,262441,0.0-4.0-1.63,FALSE
612,ImagesSoccer/VR92.5.png,190,test,",",image-keyboard-response,312,263557,0.0-4.0-1.64,FALSE
1295,ImagesSoccer/VR90.png,188,test,",",image-keyboard-response,314,265356,0.0-4.0-1.65,TRUE
2441,ImagesSoccer/VL97.5.png,188,test,.,image-keyboard-response,316,268302,0.0-4.0-1.66,FALSE
1079,ImagesDirect/VR97.5.png,190,test,",",image-keyboard-response,318,269884,0.0-4.0-1.67,FALSE
752,ImagesTennis/TR95.png,188,test,",",image-keyboard-response,320,271140,0.0-4.0-1.68,TRUE
692,ImagesTennis/TL110.png,188,test,",",image-keyboard-response,322,272335,0.0-4.0-1.69,TRUE
686,ImagesDirect/VL100.png,188,test,.,image-keyboard-response,324,273525,0.0-4.0-1.70,FALSE
553,ImagesDirect/VR107.5.png,190,test,.,image-keyboard-response,326,274582,0.0-4.0-1.71,TRUE
817,ImagesTennis/TR105.png,188,test,.,image-keyboard-response,328,275902,0.0-4.0-1.72,FALSE
527,ImagesDirect/VL110.png,188,test,",",image-keyboard-response,330,276933,0.0-4.0-1.73,TRUE
440,ImagesTennis/TL97.5.png,190,test,.,image-keyboard-response,332,277877,0.0-4.0-1.74,TRUE
538,ImagesTennis/TR90.png,188,test,",",image-keyboard-response,334,278919,0.0-4.0-1.75,TRUE
529,ImagesSoccer/VR107.5.png,190,test,.,image-keyboard-response,336,279953,0.0-4.0-1.76,TRUE
1054,ImagesSoccer/VL100.png,188,test,.,image-keyboard-response,338,281513,0.0-4.0-1.77,FALSE
724,ImagesTennis/TR92.5.png,188,test,",",image-keyboard-response,340,282739,0.0-4.0-1.78,TRUE
582,ImagesDirect/VL90.png,190,test,.,image-keyboard-response,342,283825,0.0-4.0-1.79,TRUE
608,ImagesDirect/VR110.png,190,test,.,image-keyboard-response,344,284937,0.0-4.0-1.80,TRUE
481,ImagesSoccer/VL107.5.png,188,test,",",image-keyboard-response,346,285923,0.0-4.0-1.81,TRUE
1105,ImagesTennis/TR97.5.png,188,test,",",image-keyboard-response,348,287531,0.0-4.0-1.82,TRUE
623,ImagesSoccer/VL95.png,190,test,.,image-keyboard-response,350,288657,0.0-4.0-1.83,TRUE
2106,ImagesSoccer/VL92.5.png,190,test,.,image-keyboard-response,352,291267,0.0-4.0-1.84,TRUE
1126,ImagesDirect/VL97.5.png,188,test,.,image-keyboard-response,354,292898,0.0-4.0-1.85,FALSE
1694,ImagesDirect/VR90.png,188,test,",",image-keyboard-response,356,295096,0.0-4.0-1.86,TRUE
1029,ImagesTennis/TL105.png,188,test,",",image-keyboard-response,358,296630,0.0-4.0-1.87,TRUE
865,ImagesTennis/TR100.png,190,test,.,image-keyboard-response,360,297998,0.0-4.0-1.88,TRUE
673,ImagesTennis/TL90.png,190,test,.,image-keyboard-response,362,299175,0.0-4.0-1.89,TRUE
856,ImagesTennis/TR110.png,190,test,.,image-keyboard-response,364,300536,0.0-4.0-1.90,TRUE
557,ImagesDirect/VL102.5.png,188,test,",",image-keyboard-response,366,301597,0.0-4.0-1.91,TRUE
488,ImagesDirect/VL105.png,188,test,",",image-keyboard-response,368,302589,0.0-4.0-1.92,TRUE
581,ImagesSoccer/VR105.png,190,test,.,image-keyboard-response,370,303674,0.0-4.0-1.93,TRUE
865,ImagesSoccer/VR102.5.png,190,test,.,image-keyboard-response,372,305044,0.0-4.0-1.94,TRUE
461,ImagesSoccer/VL110.png,188,test,",",image-keyboard-response,374,306009,0.0-4.0-1.95,TRUE
481,ImagesTennis/TR102.5.png,190,test,.,image-keyboard-response,376,306993,0.0-4.0-1.96,TRUE
1035,ImagesTennis/TL92.5.png,190,test,.,image-keyboard-response,378,308532,0.0-4.0-1.97,TRUE
440,ImagesDirect/VL107.5.png,188,test,",",image-keyboard-response,380,309476,0.0-4.0-1.98,TRUE
628,ImagesTennis/TL107.5.png,188,test,",",image-keyboard-response,382,310609,0.0-4.0-1.99,TRUE
565,ImagesTennis/TL100.png,188,test,.,image-keyboard-response,384,311678,0.0-4.0-1.100,FALSE
472,ImagesSoccer/VR97.5.png,190,test,",",image-keyboard-response,386,312654,0.0-4.0-1.101,FALSE
671,ImagesDirect/VR100.png,188,test,.,image-keyboard-response,388,313828,0.0-4.0-1.102,FALSE
660,ImagesDirect/VL95.png,188,test,.,image-keyboard-response,390,314992,0.0-4.0-1.103,FALSE
661,ImagesDirect/VR102.5.png,190,test,.,image-keyboard-response,392,316157,0.0-4.0-1.104,TRUE
570,ImagesTennis/TL102.5.png,188,test,",",image-keyboard-response,394,317232,0.0-4.0-1.105,TRUE
421,ImagesSoccer/VR110.png,190,test,.,image-keyboard-response,396,318156,0.0-4.0-1.106,TRUE
665,ImagesDirect/VR95.png,188,test,",",image-keyboard-response,398,319325,0.0-4.0-1.107,TRUE
489,ImagesSoccer/VL100.png,188,test,.,image-keyboard-response,400,320318,0.0-4.0-1.108,FALSE
451,ImagesSoccer/VL107.5.png,188,test,",",image-keyboard-response,402,321273,0.0-4.0-1.109,TRUE
721,ImagesDirect/VR92.5.png,188,test,",",image-keyboard-response,404,322498,0.0-4.0-1.110,TRUE
503,ImagesTennis/TL105.png,188,test,",",image-keyboard-response,406,323505,0.0-4.0-1.111,TRUE
589,ImagesDirect/VR90.png,188,test,",",image-keyboard-response,408,324598,0.0-4.0-1.112,TRUE
1547,ImagesSoccer/VL95.png,188,test,.,image-keyboard-response,410,326648,0.0-4.0-1.113,FALSE
597,ImagesDirect/VL102.5.png,188,test,",",image-keyboard-response,412,327747,0.0-4.0-1.114,TRUE
508,ImagesTennis/TR105.png,190,test,.,image-keyboard-response,414,328758,0.0-4.0-1.115,TRUE
897,ImagesDirect/VL95.png,188,test,.,image-keyboard-response,416,330161,0.0-4.0-1.116,FALSE
491,ImagesTennis/TL95.png,190,test,.,image-keyboard-response,418,331155,0.0-4.0-1.117,TRUE
525,ImagesSoccer/VR105.png,190,test,.,image-keyboard-response,420,332184,0.0-4.0-1.118,TRUE
599,ImagesTennis/TL107.5.png,188,test,",",image-keyboard-response,422,333287,0.0-4.0-1.119,TRUE
476,ImagesTennis/TR102.5.png,190,test,.,image-keyboard-response,424,334267,0.0-4.0-1.120,TRUE
543,ImagesSoccer/VL97.5.png,188,test,.,image-keyboard-response,426,335314,0.0-4.0-1.121,FALSE
755,ImagesDirect/VL90.png,190,test,.,image-keyboard-response,428,336573,0.0-4.0-1.122,TRUE
1265,ImagesDirect/VR95.png,188,test,",",image-keyboard-response,430,338342,0.0-4.0-1.123,TRUE
524,ImagesSoccer/VR95.png,190,test,",",image-keyboard-response,432,339370,0.0-4.0-1.124,FALSE
616,ImagesSoccer/VR100.png,190,test,.,image-keyboard-response,434,340491,0.0-4.0-1.125,TRUE
800,ImagesTennis/TL92.5.png,190,test,.,image-keyboard-response,436,341796,0.0-4.0-1.126,TRUE
2150,ImagesDirect/VL92.5.png,190,test,.,image-keyboard-response,438,344453,0.0-4.0-1.127,TRUE
1309,ImagesTennis/TR95.png,188,test,",",image-keyboard-response,440,346266,0.0-4.0-1.128,TRUE
520,ImagesDirect/VR100.png,190,test,.,image-keyboard-response,442,347291,0.0-4.0-1.129,TRUE
468,ImagesDirect/VR105.png,190,test,.,image-keyboard-response,444,348264,0.0-4.0-1.130,TRUE
1110,ImagesSoccer/VR97.5.png,188,test,",",image-keyboard-response,446,349878,0.0-4.0-1.131,TRUE
631,ImagesTennis/TL90.png,190,test,.,image-keyboard-response,448,351013,0.0-4.0-1.132,TRUE
998,ImagesSoccer/VR90.png,188,test,",",image-keyboard-response,450,352514,0.0-4.0-1.133,TRUE
727,ImagesDirect/VL100.png,188,test,.,image-keyboard-response,452,353745,0.0-4.0-1.134,FALSE
523,ImagesSoccer/VL92.5.png,190,test,.,image-keyboard-response,454,354772,0.0-4.0-1.135,TRUE
687,ImagesTennis/TL102.5.png,188,test,",",image-keyboard-response,456,355961,0.0-4.0-1.136,TRUE
629,ImagesTennis/TR90.png,188,test,",",image-keyboard-response,458,357094,0.0-4.0-1.137,TRUE
553,ImagesSoccer/VR110.png,190,test,.,image-keyboard-response,460,358153,0.0-4.0-1.138,TRUE
871,ImagesTennis/TR110.png,188,test,.,image-keyboard-response,462,359528,0.0-4.0-1.139,FALSE
845,ImagesTennis/TR100.png,188,test,.,image-keyboard-response,464,360876,0.0-4.0-1.140,FALSE
639,ImagesTennis/TR92.5.png,188,test,",",image-keyboard-response,466,362019,0.0-4.0-1.141,TRUE
2213,ImagesSoccer/VR92.5.png,188,test,",",image-keyboard-response,468,364737,0.0-4.0-1.142,TRUE
937,ImagesDirect/VR97.5.png,188,test,",",image-keyboard-response,470,366179,0.0-4.0-1.143,TRUE
863,ImagesSoccer/VL90.png,190,test,.,image-keyboard-response,472,367546,0.0-4.0-1.144,TRUE
706,ImagesTennis/TR97.5.png,188,test,",",image-keyboard-response,474,368756,0.0-4.0-1.145,TRUE
473,ImagesDirect/VL110.png,188,test,",",image-keyboard-response,476,369733,0.0-4.0-1.146,TRUE
614,ImagesSoccer/VL105.png,188,test,",",image-keyboard-response,478,370850,0.0-4.0-1.147,TRUE
565,ImagesDirect/VL105.png,188,test,",",image-keyboard-response,480,371919,0.0-4.0-1.148,TRUE
572,ImagesTennis/TL100.png,188,test,.,image-keyboard-response,482,372996,0.0-4.0-1.149,FALSE
507,ImagesDirect/VL107.5.png,188,test,",",image-keyboard-response,484,374006,0.0-4.0-1.150,TRUE
576,ImagesDirect/VR110.png,190,test,.,image-keyboard-response,486,375087,0.0-4.0-1.151,TRUE
818,ImagesDirect/VR102.5.png,188,test,.,image-keyboard-response,488,376408,0.0-4.0-1.152,FALSE
667,ImagesTennis/TR107.5.png,190,test,.,image-keyboard-response,490,377580,0.0-4.0-1.153,TRUE
549,ImagesSoccer/VR102.5.png,190,test,.,image-keyboard-response,492,378633,0.0-4.0-1.154,TRUE
583,ImagesSoccer/VL102.5.png,188,test,",",image-keyboard-response,494,379719,0.0-4.0-1.155,TRUE
533,ImagesSoccer/VR107.5.png,190,test,.,image-keyboard-response,496,380756,0.0-4.0-1.156,TRUE
476,ImagesSoccer/VL110.png,188,test,",",image-keyboard-response,498,381736,0.0-4.0-1.157,TRUE
519,ImagesDirect/VR107.5.png,190,test,.,image-keyboard-response,500,382759,0.0-4.0-1.158,TRUE
500,ImagesDirect/VL97.5.png,188,test,.,image-keyboard-response,502,383764,0.0-4.0-1.159,FALSE
556,ImagesTennis/TL110.png,188,test,",",image-keyboard-response,504,384823,0.0-4.0-1.160,TRUE
1351,ImagesTennis/TL97.5.png,190,test,.,image-keyboard-response,506,386678,0.0-4.0-1.161,TRUE
485,ImagesDirect/VR110.png,190,test,.,image-keyboard-response,508,387669,0.0-4.0-1.162,TRUE
655,ImagesDirect/VR107.5.png,190,test,.,image-keyboard-response,510,388828,0.0-4.0-1.163,TRUE
850,ImagesTennis/TL90.png,190,test,.,image-keyboard-response,512,390182,0.0-4.0-1.164,TRUE
539,ImagesTennis/TR92.5.png,188,test,",",image-keyboard-response,514,391225,0.0-4.0-1.165,TRUE
710,ImagesTennis/TL110.png,188,test,",",image-keyboard-response,516,392438,0.0-4.0-1.166,TRUE
1962,ImagesSoccer/VL95.png,190,test,.,image-keyboard-response,518,394905,0.0-4.0-1.167,TRUE
353,ImagesDirect/VL90.png,188,test,.,image-keyboard-response,520,395762,0.0-4.0-1.168,FALSE
966,ImagesDirect/VR95.png,188,test,",",image-keyboard-response,522,397232,0.0-4.0-1.169,TRUE
533,ImagesSoccer/VL107.5.png,188,test,",",image-keyboard-response,524,398269,0.0-4.0-1.170,TRUE
476,ImagesSoccer/VR95.png,190,test,",",image-keyboard-response,526,399250,0.0-4.0-1.171,FALSE
525,ImagesTennis/TL97.5.png,188,test,.,image-keyboard-response,528,400277,0.0-4.0-1.172,FALSE
1284,ImagesDirect/VR100.png,188,test,.,image-keyboard-response,530,402064,0.0-4.0-1.173,FALSE
906,ImagesSoccer/VR92.5.png,188,test,",",image-keyboard-response,532,403476,0.0-4.0-1.174,TRUE
1004,ImagesTennis/TR105.png,190,test,.,image-keyboard-response,534,404984,0.0-4.0-1.175,TRUE
2109,ImagesDirect/VR102.5.png,190,test,.,image-keyboard-response,536,407598,0.0-4.0-1.176,TRUE
587,ImagesSoccer/VR90.png,188,test,",",image-keyboard-response,538,408689,0.0-4.0-1.177,TRUE
1677,ImagesSoccer/VR100.png,190,test,.,image-keyboard-response,540,410871,0.0-4.0-1.178,TRUE
629,ImagesDirect/VR97.5.png,188,test,",",image-keyboard-response,542,412003,0.0-4.0-1.179,TRUE
797,ImagesTennis/TL105.png,188,test,",",image-keyboard-response,544,413304,0.0-4.0-1.180,TRUE
527,ImagesSoccer/VL100.png,188,test,.,image-keyboard-response,546,414335,0.0-4.0-1.181,FALSE
991,ImagesTennis/TL95.png,190,test,.,image-keyboard-response,548,415830,0.0-4.0-1.182,TRUE
799,ImagesSoccer/VL90.png,190,test,.,image-keyboard-response,550,417131,0.0-4.0-1.183,TRUE
465,ImagesDirect/VL107.5.png,188,test,",",image-keyboard-response,552,418102,0.0-4.0-1.184,TRUE
1385,ImagesTennis/TL100.png,190,test,.,image-keyboard-response,554,419991,0.0-4.0-1.185,TRUE
552,ImagesSoccer/VR107.5.png,190,test,.,image-keyboard-response,556,421046,0.0-4.0-1.186,TRUE
532,ImagesTennis/TL107.5.png,188,test,",",image-keyboard-response,558,422083,0.0-4.0-1.187,TRUE
989,ImagesDirect/VL97.5.png,188,test,.,image-keyboard-response,560,423576,0.0-4.0-1.188,FALSE
548,ImagesSoccer/VR97.5.png,190,test,",",image-keyboard-response,562,424628,0.0-4.0-1.189,FALSE
526,ImagesSoccer/VL92.5.png,188,test,.,image-keyboard-response,564,425657,0.0-4.0-1.190,FALSE
568,ImagesDirect/VL102.5.png,188,test,",",image-keyboard-response,566,426729,0.0-4.0-1.191,TRUE
517,ImagesSoccer/VL110.png,188,test,",",image-keyboard-response,568,427752,0.0-4.0-1.192,TRUE
878,ImagesTennis/TR95.png,190,test,",",image-keyboard-response,570,429134,0.0-4.0-1.193,FALSE
665,ImagesDirect/VL92.5.png,188,test,.,image-keyboard-response,572,430303,0.0-4.0-1.194,FALSE
867,ImagesDirect/VL95.png,190,test,.,image-keyboard-response,574,431674,0.0-4.0-1.195,TRUE
470,ImagesDirect/VL110.png,188,test,",",image-keyboard-response,576,432649,0.0-4.0-1.196,TRUE
447,ImagesSoccer/VL102.5.png,188,test,",",image-keyboard-response,578,433599,0.0-4.0-1.197,TRUE
637,ImagesTennis/TR100.png,190,test,.,image-keyboard-response,580,434740,0.0-4.0-1.198,TRUE
556,ImagesTennis/TR97.5.png,190,test,",",image-keyboard-response,582,435799,0.0-4.0-1.199,FALSE
626,ImagesTennis/TR102.5.png,190,test,.,image-keyboard-response,584,436931,0.0-4.0-1.200,TRUE
540,ImagesSoccer/VR110.png,190,test,.,image-keyboard-response,586,437975,0.0-4.0-1.201,TRUE
493,ImagesTennis/TL102.5.png,188,test,",",image-keyboard-response,588,438972,0.0-4.0-1.202,TRUE
494,ImagesSoccer/VL97.5.png,188,test,.,image-keyboard-response,590,439969,0.0-4.0-1.203,FALSE
726,ImagesTennis/TR90.png,188,test,",",image-keyboard-response,592,441199,0.0-4.0-1.204,TRUE
1243,ImagesDirect/VR92.5.png,188,test,",",image-keyboard-response,594,442946,0.0-4.0-1.205,TRUE
603,ImagesSoccer/VL105.png,188,test,",",image-keyboard-response,596,444053,0.0-4.0-1.206,TRUE
477,ImagesDirect/VR105.png,190,test,.,image-keyboard-response,598,445034,0.0-4.0-1.207,TRUE
530,ImagesTennis/TR110.png,190,test,.,image-keyboard-response,600,446068,0.0-4.0-1.208,TRUE
459,ImagesDirect/VL100.png,188,test,.,image-keyboard-response,602,447031,0.0-4.0-1.209,FALSE
437,ImagesTennis/TR107.5.png,190,test,.,image-keyboard-response,604,447973,0.0-4.0-1.210,TRUE
561,ImagesTennis/TL92.5.png,190,test,.,image-keyboard-response,606,449038,0.0-4.0-1.211,TRUE
645,ImagesSoccer/VR105.png,190,test,.,image-keyboard-response,608,450186,0.0-4.0-1.212,TRUE
490,ImagesDirect/VL105.png,188,test,",",image-keyboard-response,610,451181,0.0-4.0-1.213,TRUE
477,ImagesSoccer/VR102.5.png,190,test,.,image-keyboard-response,612,452163,0.0-4.0-1.214,TRUE
686,ImagesDirect/VR90.png,188,test,",",image-keyboard-response,614,453356,0.0-4.0-1.215,TRUE
620,ImagesSoccer/VR92.5.png,190,test,",",image-keyboard-response,616,454480,0.0-4.0-1.216,FALSE
722,ImagesSoccer/VL100.png,188,test,.,image-keyboard-response,618,455705,0.0-4.0-1.217,FALSE
530,ImagesSoccer/VL102.5.png,188,test,",",image-keyboard-response,620,456740,0.0-4.0-1.218,TRUE
602,ImagesTennis/TL105.png,188,test,",",image-keyboard-response,622,457847,0.0-4.0-1.219,TRUE
748,ImagesSoccer/VR102.5.png,188,test,.,image-keyboard-response,624,459098,0.0-4.0-1.220,FALSE
708,ImagesSoccer/VL92.5.png,190,test,.,image-keyboard-response,626,460311,0.0-4.0-1.221,TRUE
1159,ImagesDirect/VR107.5.png,190,test,.,image-keyboard-response,628,461973,0.0-4.0-1.222,TRUE
703,ImagesSoccer/VR100.png,190,test,.,image-keyboard-response,630,463179,0.0-4.0-1.223,TRUE
510,ImagesSoccer/VR110.png,190,test,.,image-keyboard-response,632,464194,0.0-4.0-1.224,TRUE
458,ImagesSoccer/VL105.png,188,test,",",image-keyboard-response,634,465155,0.0-4.0-1.225,TRUE
587,ImagesTennis/TL95.png,188,test,.,image-keyboard-response,636,466245,0.0-4.0-1.226,FALSE
606,ImagesDirect/VL100.png,188,test,.,image-keyboard-response,638,467355,0.0-4.0-1.227,FALSE
921,ImagesTennis/TL97.5.png,190,test,.,image-keyboard-response,640,468779,0.0-4.0-1.228,TRUE
513,ImagesSoccer/VR90.png,188,test,",",image-keyboard-response,642,469797,0.0-4.0-1.229,TRUE
505,ImagesDirect/VL92.5.png,190,test,.,image-keyboard-response,644,470806,0.0-4.0-1.230,TRUE
976,ImagesDirect/VR100.png,188,test,.,image-keyboard-response,646,472287,0.0-4.0-1.231,FALSE
556,ImagesTennis/TL90.png,188,test,.,image-keyboard-response,648,473346,0.0-4.0-1.232,FALSE
591,ImagesDirect/VR110.png,190,test,.,image-keyboard-response,650,474441,0.0-4.0-1.233,TRUE
299,ImagesTennis/TL102.5.png,188,test,",",image-keyboard-response,652,475244,0.0-4.0-1.234,TRUE
618,ImagesDirect/VR95.png,190,test,",",image-keyboard-response,654,476366,0.0-4.0-1.235,FALSE
444,ImagesDirect/VL107.5.png,188,test,",",image-keyboard-response,656,477315,0.0-4.0-1.236,TRUE
667,ImagesTennis/TR105.png,188,test,.,image-keyboard-response,658,478486,0.0-4.0-1.237,FALSE
533,ImagesTennis/TL100.png,188,test,.,image-keyboard-response,660,479523,0.0-4.0-1.238,FALSE
462,ImagesDirect/VR105.png,190,test,.,image-keyboard-response,662,480489,0.0-4.0-1.239,TRUE
446,ImagesSoccer/VL97.5.png,188,test,.,image-keyboard-response,664,481440,0.0-4.0-1.240,FALSE
900,ImagesSoccer/VR95.png,188,test,",",image-keyboard-response,666,482846,0.0-4.0-1.241,TRUE
1128,ImagesDirect/VR90.png,188,test,",",image-keyboard-response,668,484478,0.0-4.0-1.242,TRUE
506,ImagesTennis/TR90.png,188,test,",",image-keyboard-response,670,485489,0.0-4.0-1.243,TRUE
482,ImagesTennis/TR110.png,190,test,.,image-keyboard-response,672,486475,0.0-4.0-1.244,TRUE
440,ImagesDirect/VL110.png,188,test,",",image-keyboard-response,674,487420,0.0-4.0-1.245,TRUE
464,ImagesSoccer/VL110.png,188,test,",",image-keyboard-response,676,488388,0.0-4.0-1.246,TRUE
560,ImagesSoccer/VR105.png,190,test,.,image-keyboard-response,678,489451,0.0-4.0-1.247,TRUE
493,ImagesTennis/TR107.5.png,190,test,.,image-keyboard-response,680,490447,0.0-4.0-1.248,TRUE
1334,ImagesSoccer/VL95.png,190,test,.,image-keyboard-response,682,492285,0.0-4.0-1.249,TRUE
511,ImagesTennis/TR95.png,188,test,",",image-keyboard-response,684,493302,0.0-4.0-1.250,TRUE
809,ImagesDirect/VL95.png,188,test,.,image-keyboard-response,686,494614,0.0-4.0-1.251,FALSE
422,ImagesSoccer/VR107.5.png,190,test,.,image-keyboard-response,688,495540,0.0-4.0-1.252,TRUE
395,ImagesSoccer/VL107.5.png,188,test,",",image-keyboard-response,690,496440,0.0-4.0-1.253,TRUE
658,ImagesDirect/VL102.5.png,188,test,",",image-keyboard-response,692,497602,0.0-4.0-1.254,TRUE
416,ImagesTennis/TL110.png,188,test,",",image-keyboard-response,694,498522,0.0-4.0-1.255,TRUE
1128,ImagesTennis/TR97.5.png,188,test,",",image-keyboard-response,696,500155,0.0-4.0-1.256,TRUE
456,ImagesTennis/TR92.5.png,188,test,",",image-keyboard-response,698,501114,0.0-4.0-1.257,TRUE
558,ImagesTennis/TL92.5.png,190,test,.,image-keyboard-response,700,502177,0.0-4.0-1.258,TRUE
414,ImagesTennis/TL107.5.png,188,test,",",image-keyboard-response,702,503096,0.0-4.0-1.259,TRUE
1256,ImagesDirect/VL90.png,190,test,.,image-keyboard-response,704,504856,0.0-4.0-1.260,TRUE
746,ImagesSoccer/VL90.png,190,test,.,image-keyboard-response,706,506106,0.0-4.0-1.261,TRUE
1090,ImagesDirect/VR97.5.png,190,test,",",image-keyboard-response,708,507700,0.0-4.0-1.262,FALSE
422,ImagesDirect/VL97.5.png,188,test,.,image-keyboard-response,710,508628,0.0-4.0-1.263,FALSE
700,ImagesTennis/TR100.png,190,test,.,image-keyboard-response,712,509831,0.0-4.0-1.264,TRUE
879,ImagesDirect/VR92.5.png,188,test,",",image-keyboard-response,714,511216,0.0-4.0-1.265,TRUE
812,ImagesDirect/VR102.5.png,190,test,.,image-keyboard-response,716,512531,0.0-4.0-1.266,TRUE
760,ImagesSoccer/VR97.5.png,190,test,",",image-keyboard-response,718,513794,0.0-4.0-1.267,FALSE
426,ImagesDirect/VL105.png,188,test,",",image-keyboard-response,720,514725,0.0-4.0-1.268,TRUE
547,ImagesTennis/TR102.5.png,190,test,.,image-keyboard-response,722,515776,0.0-4.0-1.269,TRUE
