"rt","stimulus","key_press","test_part","correct_response","trial_type","trial_index","time_elapsed","internal_node_id","correct"
"3801","ImagesSoccer/VL102.5.png","188","test",",","image-keyboard-response","4","29049","0.0-3.0-1.0","true"
"2547","ImagesSoccer/VR100.png","190","test",".","image-keyboard-response","6","32099","0.0-3.0-1.1","true"
"2522","ImagesSoccer/VL110.png","188","test",",","image-keyboard-response","8","35132","0.0-3.0-1.2","true"
"2464","ImagesTennis/TL97.5.png","188","test",".","image-keyboard-response","10","38107","0.0-3.0-1.3","false"
"1586","ImagesTennis/TR97.5.png","190","test",",","image-keyboard-response","12","40196","0.0-3.0-1.4","false"
"838","ImagesTennis/TL105.png","188","test",",","image-keyboard-response","14","41548","0.0-3.0-1.5","true"
"1749","ImagesSoccer/VL95.png","190","test",".","image-keyboard-response","16","43804","0.0-3.0-1.6","true"
"841","ImagesTennis/TL90.png","190","test",".","image-keyboard-response","18","45148","0.0-3.0-1.7","true"
"1309","ImagesSoccer/VL105.png","188","test",",","image-keyboard-response","20","46972","0.0-3.0-1.8","true"
"1002","ImagesSoccer/VL92.5.png","190","test",".","image-keyboard-response","22","48476","0.0-3.0-1.9","true"
"1937","ImagesDirect/VR110.png","190","test",".","image-keyboard-response","24","50916","0.0-3.0-1.10","true"
"1161","ImagesTennis/TR95.png","188","test",",","image-keyboard-response","26","52588","0.0-3.0-1.11","true"
"978","ImagesDirect/VR102.5.png","190","test",".","image-keyboard-response","28","54068","0.0-3.0-1.12","true"
"1089","ImagesDirect/VR100.png","190","test",".","image-keyboard-response","30","55667","0.0-3.0-1.13","true"
"927","ImagesDirect/VL107.5.png","188","test",",","image-keyboard-response","32","57103","0.0-3.0-1.14","true"
"1022","ImagesTennis/TR107.5.png","190","test",".","image-keyboard-response","34","58636","0.0-3.0-1.15","true"
"3438","ImagesTennis/TR100.png","190","test",".","image-keyboard-response","36","62575","0.0-3.0-1.16","true"
"1470","ImagesDirect/VL90.png","190","test",".","image-keyboard-response","38","64559","0.0-3.0-1.17","true"
"1177","ImagesDirect/VR92.5.png","188","test",",","image-keyboard-response","40","66240","0.0-3.0-1.18","true"
"1328","ImagesSoccer/VR95.png","188","test",",","image-keyboard-response","42","68071","0.0-3.0-1.19","true"
"776","ImagesTennis/TR92.5.png","188","test",",","image-keyboard-response","44","69351","0.0-3.0-1.20","true"
"2098","ImagesTennis/TL102.5.png","188","test",",","image-keyboard-response","46","71951","0.0-3.0-1.21","true"
"1665","ImagesDirect/VL97.5.png","190","test",".","image-keyboard-response","48","74119","0.0-3.0-1.22","true"
"785","ImagesTennis/TR105.png","188","test",".","image-keyboard-response","50","75407","0.0-3.0-1.23","false"
"890","ImagesTennis/TL95.png","190","test",".","image-keyboard-response","52","76800","0.0-3.0-1.24","true"
"3329","ImagesDirect/VR97.5.png","190","test",",","image-keyboard-response","54","80631","0.0-3.0-1.25","false"
"841","ImagesSoccer/VL107.5.png","188","test",",","image-keyboard-response","56","81975","0.0-3.0-1.26","true"
"906","ImagesSoccer/VR107.5.png","190","test",".","image-keyboard-response","58","83383","0.0-3.0-1.27","true"
"778","ImagesDirect/VR107.5.png","190","test",".","image-keyboard-response","60","84663","0.0-3.0-1.28","true"
"2106","ImagesDirect/VL100.png","188","test",".","image-keyboard-response","62","87271","0.0-3.0-1.29","false"
"737","ImagesDirect/VL110.png","188","test",",","image-keyboard-response","64","88510","0.0-3.0-1.30","true"
"798","ImagesSoccer/VR110.png","190","test",".","image-keyboard-response","66","89811","0.0-3.0-1.31","true"
"1689","ImagesSoccer/VR102.5.png","190","test",".","image-keyboard-response","68","92003","0.0-3.0-1.32","true"
"1022","ImagesDirect/VL105.png","188","test",",","image-keyboard-response","70","93530","0.0-3.0-1.33","true"
"946","ImagesTennis/TL110.png","188","test",",","image-keyboard-response","72","94979","0.0-3.0-1.34","true"
"1345","ImagesTennis/TL107.5.png","188","test",",","image-keyboard-response","74","96827","0.0-3.0-1.35","true"
"834","ImagesDirect/VL102.5.png","188","test",",","image-keyboard-response","76","98163","0.0-3.0-1.36","true"
"3178","ImagesDirect/VR95.png","188","test",",","image-keyboard-response","78","101843","0.0-3.0-1.37","true"
"1746","ImagesSoccer/VL97.5.png","190","test",".","image-keyboard-response","80","104091","0.0-3.0-1.38","true"
"753","ImagesTennis/TL92.5.png","190","test",".","image-keyboard-response","82","105347","0.0-3.0-1.39","true"
"921","ImagesDirect/VR105.png","190","test",".","image-keyboard-response","84","106771","0.0-3.0-1.40","true"
"1218","ImagesSoccer/VR92.5.png","188","test",",","image-keyboard-response","86","108492","0.0-3.0-1.41","true"
"1057","ImagesDirect/VL95.png","190","test",".","image-keyboard-response","88","110051","0.0-3.0-1.42","true"
"1755","ImagesSoccer/VL100.png","190","test",".","image-keyboard-response","90","112311","0.0-3.0-1.43","true"
"1314","ImagesTennis/TL100.png","190","test",".","image-keyboard-response","92","114127","0.0-3.0-1.44","true"
"850","ImagesTennis/TR90.png","188","test",",","image-keyboard-response","94","115479","0.0-3.0-1.45","true"
"822","ImagesSoccer/VL90.png","190","test",".","image-keyboard-response","96","116803","0.0-3.0-1.46","true"
"898","ImagesTennis/TR110.png","190","test",".","image-keyboard-response","98","118203","0.0-3.0-1.47","true"
"814","ImagesSoccer/VR105.png","190","test",".","image-keyboard-response","100","119520","0.0-3.0-1.48","true"
"946","ImagesSoccer/VR90.png","188","test",",","image-keyboard-response","102","120967","0.0-3.0-1.49","true"
"874","ImagesTennis/TR102.5.png","188","test",".","image-keyboard-response","104","122343","0.0-3.0-1.50","false"
"1490","ImagesSoccer/VR97.5.png","188","test",",","image-keyboard-response","106","124335","0.0-3.0-1.51","true"
"914","ImagesDirect/VR90.png","188","test",",","image-keyboard-response","108","125751","0.0-3.0-1.52","true"
"1002","ImagesDirect/VL92.5.png","190","test",".","image-keyboard-response","110","127255","0.0-3.0-1.53","true"
"1393","ImagesDirect/VR105.png","190","test",".","image-keyboard-response","112","129151","0.0-3.0-1.54","true"
"818","ImagesSoccer/VR107.5.png","190","test",".","image-keyboard-response","114","130471","0.0-3.0-1.55","true"
"2145","ImagesSoccer/VL95.png","190","test",".","image-keyboard-response","116","133119","0.0-3.0-1.56","true"
"1617","ImagesDirect/VR102.5.png","190","test",".","image-keyboard-response","118","135239","0.0-3.0-1.57","true"
"697","ImagesTennis/TR105.png","188","test",".","image-keyboard-response","120","136439","0.0-3.0-1.58","false"
"689","ImagesTennis/TL92.5.png","190","test",".","image-keyboard-response","122","137631","0.0-3.0-1.59","true"
"738","ImagesDirect/VR92.5.png","188","test",",","image-keyboard-response","124","138871","0.0-3.0-1.60","true"
"1082","ImagesTennis/TL100.png","190","test",".","image-keyboard-response","126","140455","0.0-3.0-1.61","true"
"715","ImagesDirect/VL105.png","188","test",",","image-keyboard-response","128","141671","0.0-3.0-1.62","true"
"1353","ImagesDirect/VR97.5.png","188","test",",","image-keyboard-response","130","143526","0.0-3.0-1.63","true"
"925","ImagesSoccer/VR105.png","190","test",".","image-keyboard-response","132","144954","0.0-3.0-1.64","true"
"849","ImagesTennis/TR92.5.png","188","test",",","image-keyboard-response","134","146307","0.0-3.0-1.65","true"
"1641","ImagesSoccer/VL97.5.png","190","test",".","image-keyboard-response","136","148451","0.0-3.0-1.66","true"
"721","ImagesSoccer/VL100.png","188","test",".","image-keyboard-response","138","149674","0.0-3.0-1.67","false"
"1570","ImagesDirect/VL97.5.png","190","test",".","image-keyboard-response","140","151747","0.0-3.0-1.68","true"
"1113","ImagesTennis/TL97.5.png","190","test",".","image-keyboard-response","142","153362","0.0-3.0-1.69","true"
"786","ImagesSoccer/VL110.png","188","test",",","image-keyboard-response","144","154650","0.0-3.0-1.70","true"
"1442","ImagesSoccer/VR102.5.png","190","test",".","image-keyboard-response","146","156594","0.0-3.0-1.71","true"
"898","ImagesDirect/VL92.5.png","190","test",".","image-keyboard-response","148","157994","0.0-3.0-1.72","true"
"850","ImagesTennis/TL107.5.png","188","test",",","image-keyboard-response","150","159346","0.0-3.0-1.73","true"
"1202","ImagesSoccer/VR97.5.png","188","test",",","image-keyboard-response","152","161050","0.0-3.0-1.74","true"
"676","ImagesTennis/TL110.png","188","test",",","image-keyboard-response","154","162228","0.0-3.0-1.75","true"
"1065","ImagesDirect/VR90.png","188","test",",","image-keyboard-response","156","163795","0.0-3.0-1.76","true"
"673","ImagesTennis/TL105.png","188","test",",","image-keyboard-response","158","164971","0.0-3.0-1.77","true"
"986","ImagesSoccer/VR95.png","188","test",",","image-keyboard-response","160","166459","0.0-3.0-1.78","true"
"541","ImagesDirect/VL107.5.png","188","test",",","image-keyboard-response","162","167503","0.0-3.0-1.79","true"
"694","ImagesTennis/TR97.5.png","188","test",",","image-keyboard-response","164","168699","0.0-3.0-1.80","true"
"690","ImagesSoccer/VL102.5.png","188","test",",","image-keyboard-response","166","169891","0.0-3.0-1.81","true"
"689","ImagesTennis/TL102.5.png","190","test",",","image-keyboard-response","168","171083","0.0-3.0-1.82","false"
"619","ImagesTennis/TR110.png","188","test",".","image-keyboard-response","170","172203","0.0-3.0-1.83","false"
"1038","ImagesDirect/VL90.png","190","test",".","image-keyboard-response","172","173744","0.0-3.0-1.84","true"
"798","ImagesTennis/TR90.png","188","test",",","image-keyboard-response","174","175043","0.0-3.0-1.85","true"
"809","ImagesDirect/VR100.png","190","test",".","image-keyboard-response","176","176355","0.0-3.0-1.86","true"
"607","ImagesSoccer/VR110.png","188","test",".","image-keyboard-response","178","177463","0.0-3.0-1.87","false"
"1138","ImagesSoccer/VL92.5.png","188","test",".","image-keyboard-response","180","179103","0.0-3.0-1.88","false"
"73178","ImagesSoccer/VR100.png","190","test",".","image-keyboard-response","182","252783","0.0-3.0-1.89","true"
"1032","ImagesTennis/TR102.5.png","188","test",".","image-keyboard-response","184","254318","0.0-3.0-1.90","false"
"633","ImagesSoccer/VL107.5.png","188","test",",","image-keyboard-response","186","255454","0.0-3.0-1.91","true"
"953","ImagesSoccer/VR92.5.png","188","test",",","image-keyboard-response","188","256910","0.0-3.0-1.92","true"
"682","ImagesDirect/VR107.5.png","190","test",".","image-keyboard-response","190","258094","0.0-3.0-1.93","true"
"1517","ImagesDirect/VL95.png","190","test",".","image-keyboard-response","192","260114","0.0-3.0-1.94","true"
"1334","ImagesDirect/VR95.png","188","test",",","image-keyboard-response","194","261950","0.0-3.0-1.95","true"
"726","ImagesSoccer/VR90.png","188","test",",","image-keyboard-response","196","263179","0.0-3.0-1.96","true"
"1186","ImagesTennis/TR100.png","190","test",".","image-keyboard-response","198","264866","0.0-3.0-1.97","true"
"914","ImagesTennis/TR95.png","188","test",",","image-keyboard-response","200","266282","0.0-3.0-1.98","true"
"2962","ImagesTennis/TR107.5.png","190","test",".","image-keyboard-response","202","269746","0.0-3.0-1.99","true"
"823","ImagesTennis/TL90.png","190","test",".","image-keyboard-response","204","271074","0.0-3.0-1.100","true"
"890","ImagesSoccer/VL90.png","190","test",".","image-keyboard-response","206","272466","0.0-3.0-1.101","true"
"834","ImagesTennis/TL95.png","190","test",".","image-keyboard-response","208","273802","0.0-3.0-1.102","true"
"617","ImagesDirect/VL110.png","188","test",",","image-keyboard-response","210","274922","0.0-3.0-1.103","true"
"1049","ImagesDirect/VL102.5.png","188","test",",","image-keyboard-response","212","276474","0.0-3.0-1.104","true"
"1050","ImagesDirect/VL100.png","188","test",".","image-keyboard-response","214","278026","0.0-3.0-1.105","false"
"1209","ImagesSoccer/VL105.png","188","test",",","image-keyboard-response","216","279738","0.0-3.0-1.106","true"
"770","ImagesDirect/VR110.png","190","test",".","image-keyboard-response","218","281010","0.0-3.0-1.107","true"
"713","ImagesTennis/TR107.5.png","190","test",".","image-keyboard-response","220","282225","0.0-3.0-1.108","true"
"721","ImagesTennis/TR92.5.png","188","test",",","image-keyboard-response","222","283449","0.0-3.0-1.109","true"
"642","ImagesTennis/TR95.png","188","test",",","image-keyboard-response","224","284594","0.0-3.0-1.110","true"
"769","ImagesDirect/VR100.png","190","test",".","image-keyboard-response","226","285865","0.0-3.0-1.111","true"
"593","ImagesTennis/TR100.png","188","test",".","image-keyboard-response","228","286962","0.0-3.0-1.112","false"
"645","ImagesSoccer/VR100.png","188","test",".","image-keyboard-response","230","288110","0.0-3.0-1.113","false"
"773","ImagesTennis/TR105.png","190","test",".","image-keyboard-response","232","289386","0.0-3.0-1.114","true"
"989","ImagesDirect/VL90.png","190","test",".","image-keyboard-response","234","290877","0.0-3.0-1.115","true"
"1842","ImagesSoccer/VR102.5.png","190","test",".","image-keyboard-response","236","293222","0.0-3.0-1.116","true"
"602","ImagesTennis/TL95.png","190","test",".","image-keyboard-response","238","294326","0.0-3.0-1.117","true"
"722","ImagesDirect/VL100.png","188","test",".","image-keyboard-response","240","295550","0.0-3.0-1.118","false"
"552","ImagesDirect/VR97.5.png","190","test",",","image-keyboard-response","242","296605","0.0-3.0-1.119","false"
"547","ImagesDirect/VL105.png","188","test",",","image-keyboard-response","244","297654","0.0-3.0-1.120","true"
"618","ImagesDirect/VR110.png","190","test",".","image-keyboard-response","246","298774","0.0-3.0-1.121","true"
"802","ImagesSoccer/VR90.png","188","test",",","image-keyboard-response","248","300077","0.0-3.0-1.122","true"
"833","ImagesDirect/VL97.5.png","190","test",".","image-keyboard-response","250","301413","0.0-3.0-1.123","true"
"746","ImagesSoccer/VR110.png","190","test",".","image-keyboard-response","252","302661","0.0-3.0-1.124","true"
"625","ImagesDirect/VR107.5.png","190","test",".","image-keyboard-response","254","303789","0.0-3.0-1.125","true"
"673","ImagesTennis/TL107.5.png","188","test",",","image-keyboard-response","256","304965","0.0-3.0-1.126","true"
"753","ImagesDirect/VL92.5.png","190","test",".","image-keyboard-response","258","306222","0.0-3.0-1.127","true"
"849","ImagesSoccer/VR107.5.png","190","test",".","image-keyboard-response","260","307573","0.0-3.0-1.128","true"
"761","ImagesDirect/VL110.png","188","test",",","image-keyboard-response","262","308837","0.0-3.0-1.129","true"
"1002","ImagesSoccer/VR95.png","188","test",",","image-keyboard-response","264","310342","0.0-3.0-1.130","true"
"993","ImagesTennis/TR97.5.png","188","test",",","image-keyboard-response","266","311837","0.0-3.0-1.131","true"
"1618","ImagesTennis/TL102.5.png","188","test",",","image-keyboard-response","268","313958","0.0-3.0-1.132","true"
"777","ImagesSoccer/VL100.png","188","test",".","image-keyboard-response","270","315237","0.0-3.0-1.133","false"
"643","ImagesTennis/TL110.png","188","test",",","image-keyboard-response","272","316382","0.0-3.0-1.134","true"
"2693","ImagesDirect/VR95.png","188","test",",","image-keyboard-response","274","319577","0.0-3.0-1.135","true"
"609","ImagesTennis/TL90.png","190","test",".","image-keyboard-response","276","320689","0.0-3.0-1.136","true"
"841","ImagesSoccer/VL92.5.png","190","test",".","image-keyboard-response","278","322033","0.0-3.0-1.137","true"
"1112","ImagesTennis/TR102.5.png","190","test",".","image-keyboard-response","280","323649","0.0-3.0-1.138","true"
"570","ImagesDirect/VR105.png","190","test",".","image-keyboard-response","282","324721","0.0-3.0-1.139","true"
"882","ImagesTennis/TL100.png","188","test",".","image-keyboard-response","284","326105","0.0-3.0-1.140","false"
"490","ImagesDirect/VL95.png","190","test",".","image-keyboard-response","286","327097","0.0-3.0-1.141","true"
"585","ImagesSoccer/VL107.5.png","188","test",",","image-keyboard-response","288","328185","0.0-3.0-1.142","true"
"537","ImagesDirect/VL102.5.png","188","test",",","image-keyboard-response","290","329225","0.0-3.0-1.143","true"
"651","ImagesTennis/TL92.5.png","190","test",".","image-keyboard-response","292","330377","0.0-3.0-1.144","true"
"506","ImagesTennis/TL97.5.png","190","test",".","image-keyboard-response","294","331385","0.0-3.0-1.145","true"
"762","ImagesSoccer/VL102.5.png","188","test",",","image-keyboard-response","296","332649","0.0-3.0-1.146","true"
"682","ImagesSoccer/VR97.5.png","190","test",",","image-keyboard-response","298","333833","0.0-3.0-1.147","false"
"498","ImagesDirect/VL107.5.png","188","test",",","image-keyboard-response","300","334833","0.0-3.0-1.148","true"
"1210","ImagesDirect/VR90.png","188","test",",","image-keyboard-response","302","336545","0.0-3.0-1.149","true"
"746","ImagesDirect/VR92.5.png","188","test",",","image-keyboard-response","304","337793","0.0-3.0-1.150","true"
"602","ImagesSoccer/VL105.png","188","test",",","image-keyboard-response","306","338897","0.0-3.0-1.151","true"
"617","ImagesTennis/TL105.png","188","test",",","image-keyboard-response","308","340016","0.0-3.0-1.152","true"
"1126","ImagesSoccer/VL97.5.png","190","test",".","image-keyboard-response","310","341645","0.0-3.0-1.153","true"
"633","ImagesSoccer/VL110.png","188","test",",","image-keyboard-response","312","342781","0.0-3.0-1.154","true"
"661","ImagesSoccer/VL90.png","190","test",".","image-keyboard-response","314","343945","0.0-3.0-1.155","true"
"553","ImagesSoccer/VL95.png","190","test",".","image-keyboard-response","316","345001","0.0-3.0-1.156","true"
"602","ImagesSoccer/VR92.5.png","188","test",",","image-keyboard-response","318","346105","0.0-3.0-1.157","true"
"1134","ImagesDirect/VR102.5.png","190","test",".","image-keyboard-response","320","347741","0.0-3.0-1.158","true"
"682","ImagesSoccer/VR105.png","190","test",".","image-keyboard-response","322","348925","0.0-3.0-1.159","true"
"761","ImagesTennis/TR90.png","188","test",",","image-keyboard-response","324","350189","0.0-3.0-1.160","true"
"657","ImagesTennis/TR110.png","190","test",".","image-keyboard-response","326","351349","0.0-3.0-1.161","true"
"665","ImagesTennis/TL90.png","190","test",".","image-keyboard-response","328","352517","0.0-3.0-1.162","true"
"1377","ImagesDirect/VR100.png","190","test",".","image-keyboard-response","330","354397","0.0-3.0-1.163","true"
"538","ImagesDirect/VL92.5.png","190","test",".","image-keyboard-response","332","355437","0.0-3.0-1.164","true"
"642","ImagesTennis/TR97.5.png","188","test",",","image-keyboard-response","334","356581","0.0-3.0-1.165","true"
"770","ImagesSoccer/VL107.5.png","188","test",",","image-keyboard-response","336","357853","0.0-3.0-1.166","true"
"707","ImagesTennis/TL95.png","190","test",".","image-keyboard-response","338","359061","0.0-3.0-1.167","true"
"681","ImagesSoccer/VL110.png","188","test",",","image-keyboard-response","340","360245","0.0-3.0-1.168","true"
"937","ImagesTennis/TR92.5.png","188","test",",","image-keyboard-response","342","361684","0.0-3.0-1.169","true"
"746","ImagesTennis/TL105.png","190","test",",","image-keyboard-response","344","362932","0.0-3.0-1.170","false"
"969","ImagesTennis/TL100.png","190","test",".","image-keyboard-response","346","364405","0.0-3.0-1.171","true"
"713","ImagesTennis/TR95.png","188","test",",","image-keyboard-response","348","365620","0.0-3.0-1.172","true"
"1725","ImagesDirect/VL95.png","188","test",".","image-keyboard-response","350","367848","0.0-3.0-1.173","false"
"2334","ImagesSoccer/VL100.png","188","test",".","image-keyboard-response","352","370685","0.0-3.0-1.174","false"
"785","ImagesSoccer/VL95.png","190","test",".","image-keyboard-response","354","371972","0.0-3.0-1.175","true"
"642","ImagesSoccer/VL92.5.png","190","test",".","image-keyboard-response","356","373116","0.0-3.0-1.176","true"
"595","ImagesDirect/VR110.png","190","test",".","image-keyboard-response","358","374213","0.0-3.0-1.177","true"
"670","ImagesSoccer/VR105.png","190","test",".","image-keyboard-response","360","375385","0.0-3.0-1.178","true"
"842","ImagesSoccer/VL90.png","190","test",".","image-keyboard-response","362","376729","0.0-3.0-1.179","true"
"1282","ImagesSoccer/VR102.5.png","190","test",".","image-keyboard-response","364","378513","0.0-3.0-1.180","true"
"978","ImagesSoccer/VR110.png","190","test",".","image-keyboard-response","366","379993","0.0-3.0-1.181","true"
"786","ImagesTennis/TL110.png","188","test",",","image-keyboard-response","368","381281","0.0-3.0-1.182","true"
"1673","ImagesDirect/VL100.png","188","test",".","image-keyboard-response","370","383456","0.0-3.0-1.183","false"
"2258","ImagesSoccer/VL97.5.png","188","test",".","image-keyboard-response","372","386217","0.0-3.0-1.184","false"
"641","ImagesSoccer/VR92.5.png","188","test",",","image-keyboard-response","374","387361","0.0-3.0-1.185","true"
"1329","ImagesTennis/TR100.png","188","test",".","image-keyboard-response","376","389192","0.0-3.0-1.186","false"
"794","ImagesSoccer/VL102.5.png","188","test",",","image-keyboard-response","378","390488","0.0-3.0-1.187","true"
"682","ImagesTennis/TL92.5.png","190","test",".","image-keyboard-response","380","391673","0.0-3.0-1.188","true"
"945","ImagesTennis/TL107.5.png","188","test",",","image-keyboard-response","382","393120","0.0-3.0-1.189","true"
"617","ImagesDirect/VL110.png","188","test",",","image-keyboard-response","384","394241","0.0-3.0-1.190","true"
"1386","ImagesTennis/TR102.5.png","188","test",".","image-keyboard-response","386","396128","0.0-3.0-1.191","false"
"529","ImagesDirect/VL105.png","188","test",",","image-keyboard-response","388","397160","0.0-3.0-1.192","true"
"657","ImagesTennis/TL97.5.png","190","test",".","image-keyboard-response","390","398320","0.0-3.0-1.193","true"
"754","ImagesTennis/TL102.5.png","190","test",",","image-keyboard-response","392","399576","0.0-3.0-1.194","false"
"1082","ImagesDirect/VR92.5.png","188","test",",","image-keyboard-response","394","401160","0.0-3.0-1.195","true"
"1111","ImagesTennis/TR105.png","188","test",".","image-keyboard-response","396","402773","0.0-3.0-1.196","false"
"609","ImagesSoccer/VR97.5.png","188","test",",","image-keyboard-response","398","403884","0.0-3.0-1.197","true"
"866","ImagesDirect/VR95.png","188","test",",","image-keyboard-response","400","405252","0.0-3.0-1.198","true"
"875","ImagesDirect/VR90.png","188","test",",","image-keyboard-response","402","406628","0.0-3.0-1.199","true"
"826","ImagesSoccer/VR90.png","188","test",",","image-keyboard-response","404","407956","0.0-3.0-1.200","true"
"882","ImagesSoccer/VR107.5.png","190","test",".","image-keyboard-response","406","409341","0.0-3.0-1.201","true"
"624","ImagesDirect/VR107.5.png","190","test",".","image-keyboard-response","408","410468","0.0-3.0-1.202","true"
"682","ImagesDirect/VR102.5.png","190","test",".","image-keyboard-response","410","411652","0.0-3.0-1.203","true"
"1073","ImagesDirect/VL90.png","190","test",".","image-keyboard-response","412","413229","0.0-3.0-1.204","true"
"2672","ImagesDirect/VR97.5.png","190","test",",","image-keyboard-response","414","416404","0.0-3.0-1.205","false"
"962","ImagesSoccer/VL105.png","188","test",",","image-keyboard-response","416","417868","0.0-3.0-1.206","true"
"778","ImagesDirect/VR105.png","190","test",".","image-keyboard-response","418","419148","0.0-3.0-1.207","true"
"706","ImagesSoccer/VR100.png","190","test",".","image-keyboard-response","420","420356","0.0-3.0-1.208","true"
"1049","ImagesDirect/VL102.5.png","190","test",",","image-keyboard-response","422","421908","0.0-3.0-1.209","false"
"731","ImagesDirect/VL107.5.png","188","test",",","image-keyboard-response","424","423140","0.0-3.0-1.210","true"
"786","ImagesDirect/VL97.5.png","188","test",".","image-keyboard-response","426","424428","0.0-3.0-1.211","false"
"802","ImagesTennis/TR110.png","190","test",".","image-keyboard-response","428","425732","0.0-3.0-1.212","true"
"782","ImagesTennis/TR90.png","188","test",",","image-keyboard-response","430","427016","0.0-3.0-1.213","true"
"1002","ImagesTennis/TR107.5.png","190","test",".","image-keyboard-response","432","428520","0.0-3.0-1.214","true"
"909","ImagesSoccer/VR95.png","190","test",",","image-keyboard-response","434","429931","0.0-3.0-1.215","false"
"638","ImagesDirect/VR100.png","190","test",".","image-keyboard-response","436","431072","0.0-3.0-1.216","true"
"670","ImagesSoccer/VR105.png","190","test",".","image-keyboard-response","438","432244","0.0-3.0-1.217","true"
"743","ImagesDirect/VR105.png","190","test",".","image-keyboard-response","440","433488","0.0-3.0-1.218","true"
"747","ImagesTennis/TR107.5.png","190","test",".","image-keyboard-response","442","434738","0.0-3.0-1.219","true"
"665","ImagesSoccer/VR95.png","190","test",",","image-keyboard-response","444","435905","0.0-3.0-1.220","false"
"626","ImagesDirect/VR107.5.png","190","test",".","image-keyboard-response","446","437033","0.0-3.0-1.221","true"
"697","ImagesDirect/VL110.png","188","test",",","image-keyboard-response","448","438232","0.0-3.0-1.222","true"
"867","ImagesTennis/TR97.5.png","188","test",",","image-keyboard-response","450","439601","0.0-3.0-1.223","true"
"858","ImagesDirect/VR97.5.png","188","test",",","image-keyboard-response","452","440961","0.0-3.0-1.224","true"
"802","ImagesTennis/TL97.5.png","190","test",".","image-keyboard-response","454","442265","0.0-3.0-1.225","true"
"961","ImagesDirect/VR90.png","188","test",",","image-keyboard-response","456","443728","0.0-3.0-1.226","true"
"819","ImagesDirect/VL100.png","190","test",".","image-keyboard-response","458","445049","0.0-3.0-1.227","true"
"737","ImagesTennis/TL102.5.png","188","test",",","image-keyboard-response","460","446289","0.0-3.0-1.228","true"
"642","ImagesSoccer/VL92.5.png","190","test",".","image-keyboard-response","462","447433","0.0-3.0-1.229","true"
"857","ImagesTennis/TL107.5.png","188","test",",","image-keyboard-response","464","448793","0.0-3.0-1.230","true"
"778","ImagesTennis/TR105.png","190","test",".","image-keyboard-response","466","450073","0.0-3.0-1.231","true"
"577","ImagesTennis/TR95.png","188","test",",","image-keyboard-response","468","451153","0.0-3.0-1.232","true"
"721","ImagesSoccer/VL107.5.png","188","test",",","image-keyboard-response","470","452377","0.0-3.0-1.233","true"
"905","ImagesTennis/TR102.5.png","188","test",".","image-keyboard-response","472","453785","0.0-3.0-1.234","false"
"753","ImagesSoccer/VR107.5.png","188","test",".","image-keyboard-response","474","455041","0.0-3.0-1.235","false"
"750","ImagesTennis/TR90.png","188","test",",","image-keyboard-response","476","456293","0.0-3.0-1.236","true"
"821","ImagesDirect/VL105.png","188","test",",","image-keyboard-response","478","457617","0.0-3.0-1.237","true"
"789","ImagesSoccer/VR110.png","190","test",".","image-keyboard-response","480","458909","0.0-3.0-1.238","true"
"857","ImagesSoccer/VR97.5.png","190","test",",","image-keyboard-response","482","460269","0.0-3.0-1.239","false"
"657","ImagesSoccer/VL90.png","190","test",".","image-keyboard-response","484","461429","0.0-3.0-1.240","true"
"929","ImagesTennis/TR110.png","190","test",".","image-keyboard-response","486","462861","0.0-3.0-1.241","true"
"905","ImagesDirect/VL95.png","190","test",".","image-keyboard-response","488","464268","0.0-3.0-1.242","true"
"642","ImagesDirect/VR95.png","190","test",",","image-keyboard-response","490","465412","0.0-3.0-1.243","false"
"731","ImagesSoccer/VL110.png","188","test",",","image-keyboard-response","492","466645","0.0-3.0-1.244","true"
"993","ImagesSoccer/VR90.png","188","test",",","image-keyboard-response","494","468140","0.0-3.0-1.245","true"
"738","ImagesDirect/VL97.5.png","188","test",".","image-keyboard-response","496","469380","0.0-3.0-1.246","false"
"666","ImagesDirect/VR110.png","190","test",".","image-keyboard-response","498","470548","0.0-3.0-1.247","true"
"744","ImagesTennis/TL100.png","190","test",".","image-keyboard-response","500","471796","0.0-3.0-1.248","true"
"793","ImagesSoccer/VL105.png","188","test",",","image-keyboard-response","502","473092","0.0-3.0-1.249","true"
"657","ImagesSoccer/VL97.5.png","190","test",".","image-keyboard-response","504","474252","0.0-3.0-1.250","true"
"833","ImagesDirect/VL92.5.png","190","test",".","image-keyboard-response","506","475588","0.0-3.0-1.251","true"
"649","ImagesSoccer/VL102.5.png","188","test",",","image-keyboard-response","508","476741","0.0-3.0-1.252","true"
"745","ImagesTennis/TR100.png","188","test",".","image-keyboard-response","510","477988","0.0-3.0-1.253","false"
"745","ImagesDirect/VL90.png","188","test",".","image-keyboard-response","512","479236","0.0-3.0-1.254","false"
"642","ImagesSoccer/VR100.png","188","test",".","image-keyboard-response","514","480380","0.0-3.0-1.255","false"
"658","ImagesDirect/VR102.5.png","190","test",".","image-keyboard-response","516","481540","0.0-3.0-1.256","true"
"594","ImagesTennis/TL95.png","190","test",".","image-keyboard-response","518","482636","0.0-3.0-1.257","true"
"474","ImagesTennis/TL92.5.png","190","test",".","image-keyboard-response","520","483612","0.0-3.0-1.258","true"
"574","ImagesTennis/TR92.5.png","188","test",",","image-keyboard-response","522","484688","0.0-3.0-1.259","true"
"738","ImagesSoccer/VR102.5.png","188","test",".","image-keyboard-response","524","485928","0.0-3.0-1.260","false"
"838","ImagesTennis/TL90.png","190","test",".","image-keyboard-response","526","487268","0.0-3.0-1.261","true"
"807","ImagesTennis/TL110.png","188","test",",","image-keyboard-response","528","488576","0.0-3.0-1.262","true"
"889","ImagesSoccer/VL100.png","188","test",".","image-keyboard-response","530","489968","0.0-3.0-1.263","false"
"728","ImagesSoccer/VR92.5.png","188","test",",","image-keyboard-response","532","491200","0.0-3.0-1.264","true"
"824","ImagesDirect/VL107.5.png","188","test",",","image-keyboard-response","534","492527","0.0-3.0-1.265","true"
"665","ImagesDirect/VL102.5.png","188","test",",","image-keyboard-response","536","493696","0.0-3.0-1.266","true"
"1203","ImagesTennis/TL105.png","188","test",",","image-keyboard-response","538","495400","0.0-3.0-1.267","true"
"778","ImagesDirect/VR92.5.png","188","test",",","image-keyboard-response","540","496680","0.0-3.0-1.268","true"
"849","ImagesSoccer/VL95.png","188","test",".","image-keyboard-response","542","498032","0.0-3.0-1.269","false"
"5649","ImagesCoins/10R100.png","188","test",".","image-keyboard-response","544","504184","0.0-4.0-1.0","false"
"2304","ImagesCoins/10L95.png","190","test",".","image-keyboard-response","546","506992","0.0-4.0-1.1","true"
"810","ImagesCoins/10R95.png","188","test",",","image-keyboard-response","548","508304","0.0-4.0-1.2","true"
"3753","ImagesCoins/10L102.5.png","188","test",",","image-keyboard-response","550","512559","0.0-4.0-1.3","true"
"769","ImagesCoins/10L105.png","188","test",",","image-keyboard-response","552","513831","0.0-4.0-1.4","true"
"1138","ImagesCoins/10L97.5.png","188","test",".","image-keyboard-response","554","515471","0.0-4.0-1.5","false"
"614","ImagesCoins/10L100.png","188","test",".","image-keyboard-response","556","516587","0.0-4.0-1.6","false"
"873","ImagesCoins/10R110.png","190","test",".","image-keyboard-response","558","517963","0.0-4.0-1.7","true"
"642","ImagesCoins/10R107.5.png","190","test",".","image-keyboard-response","560","519108","0.0-4.0-1.8","true"
"561","ImagesCoins/10R102.5.png","190","test",".","image-keyboard-response","562","520171","0.0-4.0-1.9","true"
"642","ImagesCoins/10R105.png","190","test",".","image-keyboard-response","564","521315","0.0-4.0-1.10","true"
"1161","ImagesCoins/10R92.5.png","188","test",",","image-keyboard-response","566","522979","0.0-4.0-1.11","true"
"849","ImagesCoins/10L92.5.png","190","test",".","image-keyboard-response","568","524331","0.0-4.0-1.12","true"
"706","ImagesCoins/10L110.png","188","test",",","image-keyboard-response","570","525539","0.0-4.0-1.13","true"
"834","ImagesCoins/10L107.5.png","188","test",",","image-keyboard-response","572","526876","0.0-4.0-1.14","true"
"1346","ImagesCoins/10L90.png","190","test",".","image-keyboard-response","574","528724","0.0-4.0-1.15","true"
"1489","ImagesCoins/10R97.5.png","188","test",",","image-keyboard-response","576","530715","0.0-4.0-1.16","true"
"778","ImagesCoins/10R90.png","188","test",",","image-keyboard-response","578","531995","0.0-4.0-1.17","true"
"633","ImagesCoins/10L92.5.png","188","test",".","image-keyboard-response","580","533131","0.0-4.0-1.18","false"
"1729","ImagesCoins/10R102.5.png","188","test",".","image-keyboard-response","582","535363","0.0-4.0-1.19","false"
"657","ImagesCoins/10L110.png","188","test",",","image-keyboard-response","584","536523","0.0-4.0-1.20","true"
"1162","ImagesCoins/10R90.png","188","test",",","image-keyboard-response","586","538187","0.0-4.0-1.21","true"
"717","ImagesCoins/10R110.png","190","test",".","image-keyboard-response","588","539407","0.0-4.0-1.22","true"
"733","ImagesCoins/10L90.png","190","test",".","image-keyboard-response","590","540643","0.0-4.0-1.23","true"
"702","ImagesCoins/10R107.5.png","190","test",".","image-keyboard-response","592","541847","0.0-4.0-1.24","true"
"810","ImagesCoins/10L95.png","188","test",".","image-keyboard-response","594","543159","0.0-4.0-1.25","false"
"614","ImagesCoins/10L107.5.png","188","test",",","image-keyboard-response","596","544275","0.0-4.0-1.26","true"
"998","ImagesCoins/10R92.5.png","188","test",",","image-keyboard-response","598","545775","0.0-4.0-1.27","true"
"961","ImagesCoins/10L97.5.png","190","test",".","image-keyboard-response","600","547239","0.0-4.0-1.28","true"
"803","ImagesCoins/10L105.png","188","test",",","image-keyboard-response","602","548543","0.0-4.0-1.29","true"
"674","ImagesCoins/10L100.png","188","test",".","image-keyboard-response","604","549719","0.0-4.0-1.30","false"
"802","ImagesCoins/10R105.png","190","test",".","image-keyboard-response","606","551023","0.0-4.0-1.31","true"
"618","ImagesCoins/10R100.png","190","test",".","image-keyboard-response","608","552144","0.0-4.0-1.32","true"
"810","ImagesCoins/10R95.png","188","test",",","image-keyboard-response","610","553455","0.0-4.0-1.33","true"
"658","ImagesCoins/10L102.5.png","188","test",",","image-keyboard-response","612","554615","0.0-4.0-1.34","true"
"1474","ImagesCoins/10R97.5.png","190","test",",","image-keyboard-response","614","556592","0.0-4.0-1.35","false"
"673","ImagesCoins/10R92.5.png","190","test",",","image-keyboard-response","616","557768","0.0-4.0-1.36","false"
"834","ImagesCoins/10L92.5.png","190","test",".","image-keyboard-response","618","559104","0.0-4.0-1.37","true"
"689","ImagesCoins/10L107.5.png","188","test",",","image-keyboard-response","620","560296","0.0-4.0-1.38","true"
"1106","ImagesCoins/10R97.5.png","190","test",",","image-keyboard-response","622","561904","0.0-4.0-1.39","false"
"770","ImagesCoins/10R90.png","188","test",",","image-keyboard-response","624","563177","0.0-4.0-1.40","true"
"697","ImagesCoins/10R107.5.png","188","test",".","image-keyboard-response","626","564376","0.0-4.0-1.41","false"
"914","ImagesCoins/10R95.png","190","test",",","image-keyboard-response","628","565792","0.0-4.0-1.42","false"
"954","ImagesCoins/10L102.5.png","188","test",",","image-keyboard-response","630","567248","0.0-4.0-1.43","true"
"746","ImagesCoins/10L100.png","188","test",".","image-keyboard-response","632","568496","0.0-4.0-1.44","false"
"1070","ImagesCoins/10R100.png","190","test",".","image-keyboard-response","634","570068","0.0-4.0-1.45","true"
"734","ImagesCoins/10L90.png","190","test",".","image-keyboard-response","636","571304","0.0-4.0-1.46","true"
"718","ImagesCoins/10L110.png","188","test",",","image-keyboard-response","638","572524","0.0-4.0-1.47","true"
"850","ImagesCoins/10L105.png","188","test",",","image-keyboard-response","640","573876","0.0-4.0-1.48","true"
"874","ImagesCoins/10R110.png","190","test",".","image-keyboard-response","642","575252","0.0-4.0-1.49","true"
"754","ImagesCoins/10R105.png","190","test",".","image-keyboard-response","644","576508","0.0-4.0-1.50","true"
"642","ImagesCoins/10R102.5.png","190","test",".","image-keyboard-response","646","577652","0.0-4.0-1.51","true"
"1082","ImagesCoins/10L95.png","190","test",".","image-keyboard-response","648","579236","0.0-4.0-1.52","true"
"1282","ImagesCoins/10L97.5.png","190","test",".","image-keyboard-response","650","581020","0.0-4.0-1.53","true"
"754","ImagesCoins/10L100.png","188","test",".","image-keyboard-response","652","582276","0.0-4.0-1.54","false"
"1410","ImagesCoins/10R100.png","188","test",".","image-keyboard-response","654","584188","0.0-4.0-1.55","false"
"649","ImagesCoins/10R90.png","188","test",",","image-keyboard-response","656","585339","0.0-4.0-1.56","true"
"947","ImagesCoins/10L90.png","190","test",".","image-keyboard-response","658","586788","0.0-4.0-1.57","true"
"1298","ImagesCoins/10R92.5.png","188","test",",","image-keyboard-response","660","588588","0.0-4.0-1.58","true"
"913","ImagesCoins/10R102.5.png","190","test",".","image-keyboard-response","662","590004","0.0-4.0-1.59","true"
"922","ImagesCoins/10L95.png","188","test",".","image-keyboard-response","664","591428","0.0-4.0-1.60","false"
"649","ImagesCoins/10L107.5.png","188","test",",","image-keyboard-response","666","592580","0.0-4.0-1.61","true"
"929","ImagesCoins/10R110.png","190","test",".","image-keyboard-response","668","594012","0.0-4.0-1.62","true"
"722","ImagesCoins/10L110.png","188","test",",","image-keyboard-response","670","595236","0.0-4.0-1.63","true"
"800","ImagesCoins/10L97.5.png","190","test",".","image-keyboard-response","672","596540","0.0-4.0-1.64","true"
"993","ImagesCoins/10R95.png","188","test",",","image-keyboard-response","674","598036","0.0-4.0-1.65","true"
"645","ImagesCoins/10L102.5.png","188","test",",","image-keyboard-response","676","599184","0.0-4.0-1.66","true"
"633","ImagesCoins/10L105.png","188","test",",","image-keyboard-response","678","600320","0.0-4.0-1.67","true"
"833","ImagesCoins/10L92.5.png","190","test",".","image-keyboard-response","680","601655","0.0-4.0-1.68","true"
"706","ImagesCoins/10R105.png","190","test",".","image-keyboard-response","682","602864","0.0-4.0-1.69","true"
"744","ImagesCoins/10R107.5.png","190","test",".","image-keyboard-response","684","604111","0.0-4.0-1.70","true"
"1075","ImagesCoins/10R97.5.png","190","test",",","image-keyboard-response","686","605688","0.0-4.0-1.71","false"
"817","ImagesCoins/10R110.png","190","test",".","image-keyboard-response","688","607007","0.0-4.0-1.72","true"
"1610","ImagesCoins/10R95.png","188","test",",","image-keyboard-response","690","609120","0.0-4.0-1.73","true"
"626","ImagesCoins/10R92.5.png","188","test",",","image-keyboard-response","692","610247","0.0-4.0-1.74","true"
"690","ImagesCoins/10L107.5.png","188","test",",","image-keyboard-response","694","611439","0.0-4.0-1.75","true"
"602","ImagesCoins/10L110.png","188","test",",","image-keyboard-response","696","612543","0.0-4.0-1.76","true"
"1234","ImagesCoins/10L95.png","190","test",".","image-keyboard-response","698","614279","0.0-4.0-1.77","true"
"857","ImagesCoins/10L105.png","190","test",",","image-keyboard-response","700","615639","0.0-4.0-1.78","false"
"594","ImagesCoins/10L102.5.png","188","test",",","image-keyboard-response","702","616736","0.0-4.0-1.79","true"
"849","ImagesCoins/10R105.png","188","test",".","image-keyboard-response","704","618087","0.0-4.0-1.80","false"
"754","ImagesCoins/10L97.5.png","188","test",".","image-keyboard-response","706","619343","0.0-4.0-1.81","false"
"698","ImagesCoins/10L92.5.png","190","test",".","image-keyboard-response","708","620543","0.0-4.0-1.82","true"
"578","ImagesCoins/10R107.5.png","190","test",".","image-keyboard-response","710","621623","0.0-4.0-1.83","true"
"746","ImagesCoins/10L90.png","190","test",".","image-keyboard-response","712","622871","0.0-4.0-1.84","true"
"646","ImagesCoins/10R102.5.png","190","test",".","image-keyboard-response","714","624020","0.0-4.0-1.85","true"
"909","ImagesCoins/10R90.png","190","test",",","image-keyboard-response","716","625431","0.0-4.0-1.86","false"
"637","ImagesCoins/10R100.png","188","test",".","image-keyboard-response","718","626571","0.0-4.0-1.87","false"
"630","ImagesCoins/10L100.png","188","test",".","image-keyboard-response","720","627704","0.0-4.0-1.88","false"
"745","ImagesCoins/10R97.5.png","188","test",",","image-keyboard-response","722","628951","0.0-4.0-1.89","true"
