"rt","stimulus","key_press","test_part","correct_response","trial_type","trial_index","time_elapsed","internal_node_id","correct"
"1925","ImagesCoins/10R105.png","190","test",".","image-keyboard-response","4","20830","0.0-3.0-1.0","true"
"1500","ImagesCoins/10L107.5.png","188","test",",","image-keyboard-response","6","22839","0.0-3.0-1.1","true"
"995","ImagesCoins/10L90.png","190","test",".","image-keyboard-response","8","24354","0.0-3.0-1.2","true"
"1096","ImagesCoins/10L110.png","188","test",",","image-keyboard-response","10","25954","0.0-3.0-1.3","true"
"909","ImagesCoins/10L100.png","190","test",".","image-keyboard-response","12","27370","0.0-3.0-1.4","true"
"1830","ImagesCoins/10L97.5.png","188","test",".","image-keyboard-response","14","29707","0.0-3.0-1.5","false"
"1009","ImagesCoins/10R95.png","188","test",",","image-keyboard-response","16","31219","0.0-3.0-1.6","true"
"1043","ImagesCoins/10R107.5.png","190","test",".","image-keyboard-response","18","32782","0.0-3.0-1.7","true"
"1096","ImagesCoins/10R97.5.png","190","test",",","image-keyboard-response","20","34394","0.0-3.0-1.8","false"
"1000","ImagesCoins/10R102.5.png","190","test",".","image-keyboard-response","22","35896","0.0-3.0-1.9","true"
"940","ImagesCoins/10R92.5.png","188","test",",","image-keyboard-response","24","37341","0.0-3.0-1.10","true"
"1233","ImagesCoins/10L105.png","188","test",",","image-keyboard-response","26","39084","0.0-3.0-1.11","true"
"1029","ImagesCoins/10R110.png","190","test",".","image-keyboard-response","28","40616","0.0-3.0-1.12","true"
"804","ImagesCoins/10R90.png","188","test",",","image-keyboard-response","30","41937","0.0-3.0-1.13","true"
"1736","ImagesCoins/10R100.png","188","test",".","image-keyboard-response","32","44190","0.0-3.0-1.14","false"
"871","ImagesCoins/10L102.5.png","188","test",",","image-keyboard-response","34","45573","0.0-3.0-1.15","true"
"701","ImagesCoins/10L92.5.png","190","test",".","image-keyboard-response","36","46789","0.0-3.0-1.16","true"
"927","ImagesCoins/10L95.png","190","test",".","image-keyboard-response","38","48231","0.0-3.0-1.17","true"
"982","ImagesCoins/10R110.png","190","test",".","image-keyboard-response","40","49723","0.0-3.0-1.18","true"
"674","ImagesCoins/10R97.5.png","188","test",",","image-keyboard-response","42","50911","0.0-3.0-1.19","true"
"495","ImagesCoins/10L97.5.png","190","test",".","image-keyboard-response","44","51912","0.0-3.0-1.20","true"
"885","ImagesCoins/10R107.5.png","190","test",".","image-keyboard-response","46","53310","0.0-3.0-1.21","true"
"1295","ImagesCoins/10R102.5.png","190","test",".","image-keyboard-response","48","55120","0.0-3.0-1.22","true"
"650","ImagesCoins/10L110.png","188","test",",","image-keyboard-response","50","56291","0.0-3.0-1.23","true"
"732","ImagesCoins/10R105.png","190","test",".","image-keyboard-response","52","57541","0.0-3.0-1.24","true"
"914","ImagesCoins/10L100.png","188","test",".","image-keyboard-response","54","58966","0.0-3.0-1.25","false"
"630","ImagesCoins/10R100.png","190","test",".","image-keyboard-response","56","60100","0.0-3.0-1.26","true"
"574","ImagesCoins/10L107.5.png","188","test",",","image-keyboard-response","58","61187","0.0-3.0-1.27","true"
"628","ImagesCoins/10L90.png","190","test",".","image-keyboard-response","60","62318","0.0-3.0-1.28","true"
"884","ImagesCoins/10L92.5.png","190","test",".","image-keyboard-response","62","63720","0.0-3.0-1.29","true"
"535","ImagesCoins/10R92.5.png","188","test",",","image-keyboard-response","64","64763","0.0-3.0-1.30","true"
"1291","ImagesCoins/10L102.5.png","188","test",",","image-keyboard-response","66","66572","0.0-3.0-1.31","true"
"798","ImagesCoins/10L95.png","190","test",".","image-keyboard-response","68","67879","0.0-3.0-1.32","true"
"534","ImagesCoins/10L105.png","188","test",",","image-keyboard-response","70","68927","0.0-3.0-1.33","true"
"761","ImagesCoins/10R95.png","188","test",",","image-keyboard-response","72","70193","0.0-3.0-1.34","true"
"845","ImagesCoins/10R90.png","188","test",",","image-keyboard-response","74","71542","0.0-3.0-1.35","true"
"569","ImagesCoins/10R110.png","190","test",".","image-keyboard-response","76","72625","0.0-3.0-1.36","true"
"549","ImagesCoins/10L107.5.png","188","test",",","image-keyboard-response","78","73681","0.0-3.0-1.37","true"
"940","ImagesCoins/10R92.5.png","188","test",",","image-keyboard-response","80","75132","0.0-3.0-1.38","true"
"1288","ImagesCoins/10R95.png","188","test",",","image-keyboard-response","82","76929","0.0-3.0-1.39","true"
"742","ImagesCoins/10R102.5.png","190","test",".","image-keyboard-response","84","78179","0.0-3.0-1.40","true"
"1477","ImagesCoins/10R100.png","190","test",".","image-keyboard-response","86","80162","0.0-3.0-1.41","true"
"880","ImagesCoins/10L95.png","190","test",".","image-keyboard-response","88","81559","0.0-3.0-1.42","true"
"627","ImagesCoins/10L110.png","188","test",",","image-keyboard-response","90","82705","0.0-3.0-1.43","true"
"689","ImagesCoins/10R90.png","188","test",",","image-keyboard-response","92","83903","0.0-3.0-1.44","true"
"1754","ImagesCoins/10L102.5.png","188","test",",","image-keyboard-response","94","86164","0.0-3.0-1.45","true"
"580","ImagesCoins/10L90.png","190","test",".","image-keyboard-response","96","87255","0.0-3.0-1.46","true"
"1016","ImagesCoins/10R97.5.png","190","test",",","image-keyboard-response","98","88778","0.0-3.0-1.47","false"
"698","ImagesCoins/10L105.png","188","test",",","image-keyboard-response","100","89993","0.0-3.0-1.48","true"
"757","ImagesCoins/10L92.5.png","190","test",".","image-keyboard-response","102","91252","0.0-3.0-1.49","true"
"909","ImagesCoins/10L100.png","188","test",".","image-keyboard-response","104","92675","0.0-3.0-1.50","false"
"543","ImagesCoins/10R105.png","190","test",".","image-keyboard-response","106","93720","0.0-3.0-1.51","true"
"805","ImagesCoins/10R107.5.png","190","test",".","image-keyboard-response","108","95033","0.0-3.0-1.52","true"
"515","ImagesCoins/10L97.5.png","188","test",".","image-keyboard-response","110","96060","0.0-3.0-1.53","false"
"865","ImagesCoins/10L95.png","190","test",".","image-keyboard-response","112","97442","0.0-3.0-1.54","true"
"605","ImagesCoins/10R90.png","188","test",",","image-keyboard-response","114","98551","0.0-3.0-1.55","true"
"831","ImagesCoins/10L110.png","188","test",",","image-keyboard-response","116","99888","0.0-3.0-1.56","true"
"1716","ImagesCoins/10R97.5.png","188","test",",","image-keyboard-response","118","102106","0.0-3.0-1.57","true"
"1063","ImagesCoins/10R102.5.png","190","test",".","image-keyboard-response","120","103685","0.0-3.0-1.58","true"
"527","ImagesCoins/10L102.5.png","188","test",",","image-keyboard-response","122","104722","0.0-3.0-1.59","true"
"558","ImagesCoins/10R107.5.png","190","test",".","image-keyboard-response","124","105796","0.0-3.0-1.60","true"
"466","ImagesCoins/10L105.png","188","test",",","image-keyboard-response","126","106776","0.0-3.0-1.61","true"
"671","ImagesCoins/10R110.png","190","test",".","image-keyboard-response","128","107965","0.0-3.0-1.62","true"
"925","ImagesCoins/10L97.5.png","190","test",".","image-keyboard-response","130","109409","0.0-3.0-1.63","true"
"573","ImagesCoins/10R95.png","188","test",",","image-keyboard-response","132","110499","0.0-3.0-1.64","true"
"501","ImagesCoins/10L100.png","190","test",".","image-keyboard-response","134","111509","0.0-3.0-1.65","true"
"532","ImagesCoins/10L92.5.png","190","test",".","image-keyboard-response","136","112544","0.0-3.0-1.66","true"
"887","ImagesCoins/10R105.png","190","test",".","image-keyboard-response","138","113936","0.0-3.0-1.67","true"
"547","ImagesCoins/10R92.5.png","188","test",",","image-keyboard-response","140","115001","0.0-3.0-1.68","true"
"551","ImagesCoins/10L90.png","190","test",".","image-keyboard-response","142","116057","0.0-3.0-1.69","true"
"663","ImagesCoins/10L107.5.png","188","test",",","image-keyboard-response","144","117231","0.0-3.0-1.70","true"
"685","ImagesCoins/10R100.png","190","test",".","image-keyboard-response","146","118428","0.0-3.0-1.71","true"
"1247","ImagesCoins/10L100.png","190","test",".","image-keyboard-response","148","120181","0.0-3.0-1.72","true"
"596","ImagesCoins/10L105.png","188","test",",","image-keyboard-response","150","121297","0.0-3.0-1.73","true"
"1672","ImagesCoins/10L102.5.png","188","test",",","image-keyboard-response","152","123474","0.0-3.0-1.74","true"
"1012","ImagesCoins/10L97.5.png","190","test",".","image-keyboard-response","154","124999","0.0-3.0-1.75","true"
"826","ImagesCoins/10R100.png","188","test",".","image-keyboard-response","156","126333","0.0-3.0-1.76","false"
"876","ImagesCoins/10R105.png","190","test",".","image-keyboard-response","158","127722","0.0-3.0-1.77","true"
"1065","ImagesCoins/10L95.png","190","test",".","image-keyboard-response","160","129292","0.0-3.0-1.78","true"
"748","ImagesCoins/10R97.5.png","188","test",",","image-keyboard-response","162","130557","0.0-3.0-1.79","true"
"543","ImagesCoins/10R92.5.png","188","test",",","image-keyboard-response","164","131611","0.0-3.0-1.80","true"
"678","ImagesCoins/10L107.5.png","188","test",",","image-keyboard-response","166","132795","0.0-3.0-1.81","true"
"675","ImagesCoins/10R102.5.png","190","test",".","image-keyboard-response","168","133981","0.0-3.0-1.82","true"
"483","ImagesCoins/10R95.png","188","test",",","image-keyboard-response","170","134966","0.0-3.0-1.83","true"
"562","ImagesCoins/10R110.png","190","test",".","image-keyboard-response","172","136045","0.0-3.0-1.84","true"
"478","ImagesCoins/10L110.png","188","test",",","image-keyboard-response","174","137026","0.0-3.0-1.85","true"
"691","ImagesCoins/10L90.png","190","test",".","image-keyboard-response","176","138224","0.0-3.0-1.86","true"
"840","ImagesCoins/10L92.5.png","190","test",".","image-keyboard-response","178","139576","0.0-3.0-1.87","true"
"720","ImagesCoins/10R90.png","188","test",",","image-keyboard-response","180","140810","0.0-3.0-1.88","true"
"628","ImagesCoins/10R107.5.png","190","test",".","image-keyboard-response","182","141955","0.0-3.0-1.89","true"
"1938","ImagesDirect/VR95.png","188","test",",","image-keyboard-response","184","144411","0.0-4.0-1.0","true"
"1124","ImagesDirect/VL102.5.png","188","test",",","image-keyboard-response","186","146053","0.0-4.0-1.1","true"
"2253","ImagesTennis/TL105.png","188","test",",","image-keyboard-response","188","148812","0.0-4.0-1.2","true"
"1201","ImagesSoccer/VL90.png","190","test",".","image-keyboard-response","190","150517","0.0-4.0-1.3","true"
"1022","ImagesSoccer/VL102.5.png","188","test",",","image-keyboard-response","192","152056","0.0-4.0-1.4","true"
"1642","ImagesDirect/VL105.png","188","test",",","image-keyboard-response","194","154211","0.0-4.0-1.5","true"
"1172","ImagesTennis/TL90.png","190","test",".","image-keyboard-response","196","155895","0.0-4.0-1.6","true"
"1552","ImagesTennis/TR97.5.png","190","test",",","image-keyboard-response","198","157967","0.0-4.0-1.7","false"
"1341","ImagesSoccer/VL100.png","188","test",".","image-keyboard-response","200","159814","0.0-4.0-1.8","false"
"1564","ImagesSoccer/VR92.5.png","188","test",",","image-keyboard-response","202","161887","0.0-4.0-1.9","true"
"2031","ImagesTennis/TL107.5.png","188","test",",","image-keyboard-response","204","164420","0.0-4.0-1.10","true"
"1352","ImagesDirect/VL110.png","188","test",",","image-keyboard-response","206","166289","0.0-4.0-1.11","true"
"1165","ImagesSoccer/VL105.png","188","test",",","image-keyboard-response","208","167966","0.0-4.0-1.12","true"
"1241","ImagesTennis/TL97.5.png","190","test",".","image-keyboard-response","210","169726","0.0-4.0-1.13","true"
"1114","ImagesTennis/TR107.5.png","190","test",".","image-keyboard-response","212","171357","0.0-4.0-1.14","true"
"862","ImagesSoccer/VR110.png","190","test",".","image-keyboard-response","214","172735","0.0-4.0-1.15","true"
"1898","ImagesTennis/TL102.5.png","188","test",",","image-keyboard-response","216","175140","0.0-4.0-1.16","true"
"821","ImagesSoccer/VR107.5.png","190","test",".","image-keyboard-response","218","176474","0.0-4.0-1.17","true"
"2228","ImagesSoccer/VL97.5.png","190","test",".","image-keyboard-response","220","179207","0.0-4.0-1.18","true"
"857","ImagesSoccer/VL107.5.png","188","test",",","image-keyboard-response","222","180583","0.0-4.0-1.19","true"
"854","ImagesSoccer/VR102.5.png","190","test",".","image-keyboard-response","224","181942","0.0-4.0-1.20","true"
"777","ImagesDirect/VR110.png","190","test",".","image-keyboard-response","226","183238","0.0-4.0-1.21","true"
"962","ImagesDirect/VR90.png","188","test",",","image-keyboard-response","228","184702","0.0-4.0-1.22","true"
"704","ImagesTennis/TR110.png","190","test",".","image-keyboard-response","230","185922","0.0-4.0-1.23","true"
"587","ImagesSoccer/VL110.png","188","test",",","image-keyboard-response","232","187011","0.0-4.0-1.24","true"
"626","ImagesSoccer/VR105.png","190","test",".","image-keyboard-response","234","188140","0.0-4.0-1.25","true"
"717","ImagesDirect/VR97.5.png","190","test",",","image-keyboard-response","236","189370","0.0-4.0-1.26","false"
"623","ImagesDirect/VR107.5.png","190","test",".","image-keyboard-response","238","190496","0.0-4.0-1.27","true"
"948","ImagesTennis/TR105.png","190","test",".","image-keyboard-response","240","191959","0.0-4.0-1.28","true"
"1233","ImagesSoccer/VL92.5.png","190","test",".","image-keyboard-response","242","193704","0.0-4.0-1.29","true"
"1354","ImagesDirect/VL92.5.png","190","test",".","image-keyboard-response","244","195572","0.0-4.0-1.30","true"
"1384","ImagesDirect/VL97.5.png","188","test",".","image-keyboard-response","246","197467","0.0-4.0-1.31","false"
"734","ImagesDirect/VR105.png","190","test",".","image-keyboard-response","248","198718","0.0-4.0-1.32","true"
"956","ImagesTennis/TR102.5.png","190","test",".","image-keyboard-response","250","200190","0.0-4.0-1.33","true"
"1179","ImagesTennis/TR90.png","188","test",",","image-keyboard-response","252","201885","0.0-4.0-1.34","true"
"1769","ImagesSoccer/VR90.png","188","test",",","image-keyboard-response","254","204166","0.0-4.0-1.35","true"
"3711","ImagesDirect/VL95.png","188","test",".","image-keyboard-response","256","208396","0.0-4.0-1.36","false"
"843","ImagesTennis/TL110.png","188","test",",","image-keyboard-response","258","209749","0.0-4.0-1.37","true"
"811","ImagesDirect/VL90.png","190","test",".","image-keyboard-response","260","211063","0.0-4.0-1.38","true"
"1402","ImagesSoccer/VL95.png","190","test",".","image-keyboard-response","262","212982","0.0-4.0-1.39","true"
"1053","ImagesTennis/TL100.png","190","test",".","image-keyboard-response","264","214540","0.0-4.0-1.40","true"
"829","ImagesSoccer/VR95.png","188","test",",","image-keyboard-response","266","215878","0.0-4.0-1.41","true"
"905","ImagesDirect/VR102.5.png","190","test",".","image-keyboard-response","268","217292","0.0-4.0-1.42","true"
"1071","ImagesTennis/TR92.5.png","188","test",",","image-keyboard-response","270","218873","0.0-4.0-1.43","true"
"1067","ImagesTennis/TL95.png","190","test",".","image-keyboard-response","272","220450","0.0-4.0-1.44","true"
"1606","ImagesSoccer/VR97.5.png","190","test",",","image-keyboard-response","274","222569","0.0-4.0-1.45","false"
"1772","ImagesTennis/TR100.png","188","test",".","image-keyboard-response","276","224845","0.0-4.0-1.46","false"
"1232","ImagesTennis/TL92.5.png","190","test",".","image-keyboard-response","278","226580","0.0-4.0-1.47","true"
"2753","ImagesDirect/VL100.png","190","test",".","image-keyboard-response","280","229851","0.0-4.0-1.48","true"
"1136","ImagesTennis/TR95.png","188","test",",","image-keyboard-response","282","231500","0.0-4.0-1.49","true"
"1903","ImagesDirect/VR92.5.png","188","test",",","image-keyboard-response","284","233923","0.0-4.0-1.50","true"
"884","ImagesDirect/VL107.5.png","188","test",",","image-keyboard-response","286","235315","0.0-4.0-1.51","true"
"816","ImagesDirect/VR100.png","190","test",".","image-keyboard-response","288","236633","0.0-4.0-1.52","true"
"1682","ImagesSoccer/VR100.png","190","test",".","image-keyboard-response","290","238831","0.0-4.0-1.53","true"
"1348","ImagesTennis/TR95.png","188","test",",","image-keyboard-response","292","240699","0.0-4.0-1.54","true"
"1995","ImagesDirect/VL90.png","190","test",".","image-keyboard-response","294","243206","0.0-4.0-1.55","true"
"1042","ImagesSoccer/VL100.png","188","test",".","image-keyboard-response","296","244753","0.0-4.0-1.56","false"
"1237","ImagesSoccer/VR90.png","188","test",",","image-keyboard-response","298","246500","0.0-4.0-1.57","true"
"704","ImagesTennis/TR105.png","190","test",".","image-keyboard-response","300","247717","0.0-4.0-1.58","true"
"4045","ImagesDirect/VR97.5.png","188","test",",","image-keyboard-response","302","252271","0.0-4.0-1.59","true"
"1051","ImagesSoccer/VR105.png","190","test",".","image-keyboard-response","304","253834","0.0-4.0-1.60","true"
"822","ImagesSoccer/VR107.5.png","190","test",".","image-keyboard-response","306","255162","0.0-4.0-1.61","true"
"484","ImagesSoccer/VR97.5.png","190","test",",","image-keyboard-response","308","256161","0.0-4.0-1.62","false"
"1043","ImagesTennis/TL95.png","190","test",".","image-keyboard-response","310","257712","0.0-4.0-1.63","true"
"1329","ImagesTennis/TR90.png","188","test",",","image-keyboard-response","312","259555","0.0-4.0-1.64","true"
"1030","ImagesSoccer/VL90.png","190","test",".","image-keyboard-response","314","261093","0.0-4.0-1.65","true"
"801","ImagesDirect/VL105.png","188","test",",","image-keyboard-response","316","262405","0.0-4.0-1.66","true"
"1103","ImagesSoccer/VL110.png","188","test",",","image-keyboard-response","318","264014","0.0-4.0-1.67","true"
"788","ImagesSoccer/VL92.5.png","190","test",".","image-keyboard-response","320","265320","0.0-4.0-1.68","true"
"1749","ImagesSoccer/VR95.png","188","test",",","image-keyboard-response","322","267572","0.0-4.0-1.69","true"
"673","ImagesDirect/VR102.5.png","190","test",".","image-keyboard-response","324","268755","0.0-4.0-1.70","true"
"1030","ImagesSoccer/VR92.5.png","188","test",",","image-keyboard-response","326","270291","0.0-4.0-1.71","true"
"1665","ImagesTennis/TR92.5.png","188","test",",","image-keyboard-response","328","272465","0.0-4.0-1.72","true"
"1200","ImagesDirect/VR95.png","188","test",",","image-keyboard-response","330","274174","0.0-4.0-1.73","true"
"1548","ImagesSoccer/VL105.png","188","test",",","image-keyboard-response","332","276230","0.0-4.0-1.74","true"
"986","ImagesDirect/VL110.png","188","test",",","image-keyboard-response","334","277735","0.0-4.0-1.75","true"
"842","ImagesTennis/TL102.5.png","190","test",",","image-keyboard-response","336","279084","0.0-4.0-1.76","false"
"620","ImagesDirect/VR105.png","190","test",".","image-keyboard-response","338","280213","0.0-4.0-1.77","true"
"778","ImagesTennis/TR107.5.png","190","test",".","image-keyboard-response","340","281497","0.0-4.0-1.78","true"
"683","ImagesSoccer/VL107.5.png","188","test",",","image-keyboard-response","342","282699","0.0-4.0-1.79","true"
"891","ImagesDirect/VL97.5.png","190","test",".","image-keyboard-response","344","284100","0.0-4.0-1.80","true"
"973","ImagesTennis/TL100.png","190","test",".","image-keyboard-response","346","285593","0.0-4.0-1.81","true"
"1082","ImagesSoccer/VL102.5.png","188","test",",","image-keyboard-response","348","287193","0.0-4.0-1.82","true"
"895","ImagesDirect/VR107.5.png","190","test",".","image-keyboard-response","350","288600","0.0-4.0-1.83","true"
"805","ImagesTennis/TL107.5.png","188","test",",","image-keyboard-response","352","289915","0.0-4.0-1.84","true"
"988","ImagesDirect/VR100.png","190","test",".","image-keyboard-response","354","291422","0.0-4.0-1.85","true"
"758","ImagesDirect/VL107.5.png","188","test",",","image-keyboard-response","356","292689","0.0-4.0-1.86","true"
"705","ImagesDirect/VL92.5.png","190","test",".","image-keyboard-response","358","293903","0.0-4.0-1.87","true"
"1181","ImagesDirect/VL102.5.png","188","test",",","image-keyboard-response","360","295593","0.0-4.0-1.88","true"
"567","ImagesSoccer/VR100.png","190","test",".","image-keyboard-response","362","296677","0.0-4.0-1.89","true"
"1026","ImagesTennis/TL90.png","190","test",".","image-keyboard-response","364","298220","0.0-4.0-1.90","true"
"1504","ImagesTennis/TR97.5.png","188","test",",","image-keyboard-response","366","300238","0.0-4.0-1.91","true"
"843","ImagesSoccer/VL97.5.png","190","test",".","image-keyboard-response","368","301589","0.0-4.0-1.92","true"
"2177","ImagesDirect/VR92.5.png","188","test",",","image-keyboard-response","370","304271","0.0-4.0-1.93","true"
"763","ImagesTennis/TR102.5.png","190","test",".","image-keyboard-response","372","305545","0.0-4.0-1.94","true"
"2976","ImagesDirect/VL95.png","188","test",".","image-keyboard-response","374","309026","0.0-4.0-1.95","false"
"855","ImagesSoccer/VL95.png","190","test",".","image-keyboard-response","376","310391","0.0-4.0-1.96","true"
"697","ImagesDirect/VL100.png","190","test",".","image-keyboard-response","378","311594","0.0-4.0-1.97","true"
"2339","ImagesTennis/TL97.5.png","190","test",".","image-keyboard-response","380","314450","0.0-4.0-1.98","true"
"880","ImagesTennis/TR100.png","190","test",".","image-keyboard-response","382","315847","0.0-4.0-1.99","true"
"518","ImagesSoccer/VR110.png","190","test",".","image-keyboard-response","384","316876","0.0-4.0-1.100","true"
"967","ImagesTennis/TL92.5.png","188","test",".","image-keyboard-response","386","318347","0.0-4.0-1.101","false"
"531","ImagesDirect/VR110.png","190","test",".","image-keyboard-response","388","319390","0.0-4.0-1.102","true"
"2051","ImagesTennis/TL105.png","188","test",",","image-keyboard-response","390","321956","0.0-4.0-1.103","true"
"715","ImagesSoccer/VR102.5.png","190","test",".","image-keyboard-response","392","323179","0.0-4.0-1.104","true"
"1383","ImagesDirect/VR90.png","188","test",",","image-keyboard-response","394","325077","0.0-4.0-1.105","true"
"680","ImagesTennis/TR110.png","190","test",".","image-keyboard-response","396","326271","0.0-4.0-1.106","true"
"668","ImagesTennis/TL110.png","188","test",",","image-keyboard-response","398","327441","0.0-4.0-1.107","true"
"1026","ImagesTennis/TR90.png","188","test",",","image-keyboard-response","400","328970","0.0-4.0-1.108","true"
"894","ImagesTennis/TL90.png","190","test",".","image-keyboard-response","402","330375","0.0-4.0-1.109","true"
"1921","ImagesTennis/TR102.5.png","190","test",".","image-keyboard-response","404","332814","0.0-4.0-1.110","true"
"1206","ImagesTennis/TL97.5.png","188","test",".","image-keyboard-response","406","334524","0.0-4.0-1.111","false"
"1203","ImagesSoccer/VL110.png","188","test",",","image-keyboard-response","408","336244","0.0-4.0-1.112","true"
"846","ImagesTennis/TL110.png","188","test",",","image-keyboard-response","410","337609","0.0-4.0-1.113","true"
"1781","ImagesSoccer/VL102.5.png","188","test",",","image-keyboard-response","412","339900","0.0-4.0-1.114","true"
"722","ImagesSoccer/VL92.5.png","190","test",".","image-keyboard-response","414","341141","0.0-4.0-1.115","true"
"2735","ImagesDirect/VL100.png","190","test",".","image-keyboard-response","416","344388","0.0-4.0-1.116","true"
"1040","ImagesTennis/TL102.5.png","188","test",",","image-keyboard-response","418","345941","0.0-4.0-1.117","true"
"789","ImagesSoccer/VR100.png","190","test",".","image-keyboard-response","420","347248","0.0-4.0-1.118","true"
"1248","ImagesDirect/VL110.png","188","test",",","image-keyboard-response","422","349008","0.0-4.0-1.119","true"
"798","ImagesTennis/TR100.png","190","test",".","image-keyboard-response","424","350324","0.0-4.0-1.120","true"
"1933","ImagesSoccer/VR92.5.png","188","test",",","image-keyboard-response","426","352765","0.0-4.0-1.121","true"
"1612","ImagesDirect/VR92.5.png","188","test",",","image-keyboard-response","428","354885","0.0-4.0-1.122","true"
"1151","ImagesDirect/VR95.png","190","test",",","image-keyboard-response","430","356546","0.0-4.0-1.123","false"
"984","ImagesTennis/TL95.png","190","test",".","image-keyboard-response","432","358042","0.0-4.0-1.124","true"
"2539","ImagesSoccer/VL97.5.png","188","test",".","image-keyboard-response","434","361091","0.0-4.0-1.125","false"
"1321","ImagesTennis/TR92.5.png","188","test",",","image-keyboard-response","436","362916","0.0-4.0-1.126","true"
"1051","ImagesSoccer/VR110.png","190","test",".","image-keyboard-response","438","364475","0.0-4.0-1.127","true"
"919","ImagesDirect/VL95.png","188","test",".","image-keyboard-response","440","365912","0.0-4.0-1.128","false"
"865","ImagesTennis/TR110.png","190","test",".","image-keyboard-response","442","367289","0.0-4.0-1.129","true"
"699","ImagesDirect/VL105.png","188","test",",","image-keyboard-response","444","368506","0.0-4.0-1.130","true"
"761","ImagesSoccer/VR105.png","190","test",".","image-keyboard-response","446","369779","0.0-4.0-1.131","true"
"1022","ImagesDirect/VL92.5.png","190","test",".","image-keyboard-response","448","371303","0.0-4.0-1.132","true"
"927","ImagesTennis/TR97.5.png","188","test",",","image-keyboard-response","450","372741","0.0-4.0-1.133","true"
"605","ImagesSoccer/VR102.5.png","190","test",".","image-keyboard-response","452","373856","0.0-4.0-1.134","true"
"797","ImagesSoccer/VL100.png","188","test",".","image-keyboard-response","454","375158","0.0-4.0-1.135","false"
"872","ImagesSoccer/VR107.5.png","190","test",".","image-keyboard-response","456","376540","0.0-4.0-1.136","true"
"921","ImagesTennis/TL105.png","188","test",",","image-keyboard-response","458","377977","0.0-4.0-1.137","true"
"733","ImagesDirect/VR100.png","190","test",".","image-keyboard-response","460","379224","0.0-4.0-1.138","true"
"1476","ImagesDirect/VR97.5.png","190","test",",","image-keyboard-response","462","381216","0.0-4.0-1.139","false"
"661","ImagesTennis/TL107.5.png","188","test",",","image-keyboard-response","464","382387","0.0-4.0-1.140","true"
"1113","ImagesTennis/TL100.png","190","test",".","image-keyboard-response","466","384016","0.0-4.0-1.141","true"
"831","ImagesSoccer/VL90.png","190","test",".","image-keyboard-response","468","385365","0.0-4.0-1.142","true"
"1741","ImagesDirect/VR90.png","188","test",",","image-keyboard-response","470","387624","0.0-4.0-1.143","true"
"604","ImagesSoccer/VL107.5.png","188","test",",","image-keyboard-response","472","388736","0.0-4.0-1.144","true"
"924","ImagesDirect/VL107.5.png","188","test",",","image-keyboard-response","474","390177","0.0-4.0-1.145","true"
"640","ImagesTennis/TR107.5.png","190","test",".","image-keyboard-response","476","391324","0.0-4.0-1.146","true"
"1114","ImagesDirect/VL102.5.png","188","test",",","image-keyboard-response","478","392942","0.0-4.0-1.147","true"
"965","ImagesSoccer/VR90.png","188","test",",","image-keyboard-response","480","394424","0.0-4.0-1.148","true"
"1055","ImagesDirect/VR102.5.png","190","test",".","image-keyboard-response","482","395996","0.0-4.0-1.149","true"
"1264","ImagesTennis/TL92.5.png","190","test",".","image-keyboard-response","484","397775","0.0-4.0-1.150","true"
"1589","ImagesDirect/VL97.5.png","188","test",".","image-keyboard-response","486","399869","0.0-4.0-1.151","false"
"1173","ImagesDirect/VR107.5.png","190","test",".","image-keyboard-response","488","401551","0.0-4.0-1.152","true"
"1157","ImagesTennis/TR95.png","188","test",",","image-keyboard-response","490","403226","0.0-4.0-1.153","true"
"3149","ImagesSoccer/VR95.png","188","test",",","image-keyboard-response","492","406882","0.0-4.0-1.154","true"
"1144","ImagesDirect/VR105.png","190","test",".","image-keyboard-response","494","408539","0.0-4.0-1.155","true"
"1653","ImagesSoccer/VL95.png","188","test",".","image-keyboard-response","496","410697","0.0-4.0-1.156","false"
"773","ImagesDirect/VL90.png","190","test",".","image-keyboard-response","498","411975","0.0-4.0-1.157","true"
"551","ImagesDirect/VR110.png","190","test",".","image-keyboard-response","500","413045","0.0-4.0-1.158","true"
"1329","ImagesSoccer/VR97.5.png","188","test",",","image-keyboard-response","502","414877","0.0-4.0-1.159","true"
"2121","ImagesTennis/TR105.png","190","test",".","image-keyboard-response","504","417516","0.0-4.0-1.160","true"
"818","ImagesSoccer/VL105.png","188","test",",","image-keyboard-response","506","418842","0.0-4.0-1.161","true"
"3649","ImagesDirect/VR97.5.png","190","test",",","image-keyboard-response","508","422994","0.0-4.0-1.162","false"
"794","ImagesDirect/VL90.png","190","test",".","image-keyboard-response","510","424306","0.0-4.0-1.163","true"
"835","ImagesTennis/TL107.5.png","188","test",",","image-keyboard-response","512","425647","0.0-4.0-1.164","true"
"698","ImagesTennis/TL90.png","190","test",".","image-keyboard-response","514","426863","0.0-4.0-1.165","true"
"1503","ImagesSoccer/VL95.png","190","test",".","image-keyboard-response","516","428876","0.0-4.0-1.166","true"
"1523","ImagesTennis/TL95.png","190","test",".","image-keyboard-response","518","430905","0.0-4.0-1.167","true"
"3414","ImagesDirect/VL105.png","188","test",",","image-keyboard-response","520","434824","0.0-4.0-1.168","true"
"696","ImagesDirect/VR105.png","190","test",".","image-keyboard-response","522","436030","0.0-4.0-1.169","true"
"699","ImagesDirect/VR107.5.png","190","test",".","image-keyboard-response","524","437233","0.0-4.0-1.170","true"
"3178","ImagesSoccer/VL102.5.png","188","test",",","image-keyboard-response","526","440918","0.0-4.0-1.171","true"
"1253","ImagesTennis/TL102.5.png","190","test",",","image-keyboard-response","528","442690","0.0-4.0-1.172","false"
"931","ImagesSoccer/VR100.png","190","test",".","image-keyboard-response","530","444133","0.0-4.0-1.173","true"
"1159","ImagesTennis/TR105.png","190","test",".","image-keyboard-response","532","445799","0.0-4.0-1.174","true"
"1755","ImagesSoccer/VR95.png","188","test",",","image-keyboard-response","534","448071","0.0-4.0-1.175","true"
"1118","ImagesDirect/VL95.png","190","test",".","image-keyboard-response","536","449700","0.0-4.0-1.176","true"
"1266","ImagesSoccer/VL100.png","188","test",".","image-keyboard-response","538","451482","0.0-4.0-1.177","false"
"1505","ImagesDirect/VL102.5.png","188","test",",","image-keyboard-response","540","453505","0.0-4.0-1.178","true"
"918","ImagesDirect/VR100.png","190","test",".","image-keyboard-response","542","454940","0.0-4.0-1.179","true"
"913","ImagesSoccer/VL90.png","188","test",".","image-keyboard-response","544","456358","0.0-4.0-1.180","false"
"931","ImagesSoccer/VR90.png","190","test",",","image-keyboard-response","546","457794","0.0-4.0-1.181","false"
"1079","ImagesSoccer/VL110.png","188","test",",","image-keyboard-response","548","459388","0.0-4.0-1.182","true"
"786","ImagesDirect/VR95.png","190","test",",","image-keyboard-response","550","460681","0.0-4.0-1.183","false"
"558","ImagesDirect/VR110.png","190","test",".","image-keyboard-response","552","461757","0.0-4.0-1.184","true"
"669","ImagesTennis/TL105.png","188","test",",","image-keyboard-response","554","462938","0.0-4.0-1.185","true"
"608","ImagesSoccer/VR97.5.png","190","test",",","image-keyboard-response","556","464058","0.0-4.0-1.186","false"
"1490","ImagesTennis/TR97.5.png","188","test",",","image-keyboard-response","558","466053","0.0-4.0-1.187","true"
"803","ImagesTennis/TR92.5.png","188","test",",","image-keyboard-response","560","467371","0.0-4.0-1.188","true"
"977","ImagesSoccer/VL107.5.png","188","test",",","image-keyboard-response","562","468868","0.0-4.0-1.189","true"
"2227","ImagesDirect/VL100.png","188","test",".","image-keyboard-response","564","471599","0.0-4.0-1.190","false"
"739","ImagesSoccer/VL92.5.png","190","test",".","image-keyboard-response","566","472844","0.0-4.0-1.191","true"
"798","ImagesSoccer/VR102.5.png","190","test",".","image-keyboard-response","568","474156","0.0-4.0-1.192","true"
"1607","ImagesDirect/VL92.5.png","190","test",".","image-keyboard-response","570","476265","0.0-4.0-1.193","true"
"723","ImagesSoccer/VR107.5.png","190","test",".","image-keyboard-response","572","477499","0.0-4.0-1.194","true"
"1661","ImagesSoccer/VL97.5.png","188","test",".","image-keyboard-response","574","479664","0.0-4.0-1.195","false"
"513","ImagesSoccer/VR105.png","190","test",".","image-keyboard-response","576","480680","0.0-4.0-1.196","true"
"512","ImagesSoccer/VR110.png","190","test",".","image-keyboard-response","578","481698","0.0-4.0-1.197","true"
"1797","ImagesTennis/TR95.png","190","test",",","image-keyboard-response","580","484000","0.0-4.0-1.198","false"
"549","ImagesTennis/TR110.png","190","test",".","image-keyboard-response","582","485057","0.0-4.0-1.199","true"
"1787","ImagesSoccer/VR92.5.png","188","test",",","image-keyboard-response","584","487350","0.0-4.0-1.200","true"
"933","ImagesTennis/TL100.png","188","test",".","image-keyboard-response","586","488790","0.0-4.0-1.201","false"
"704","ImagesTennis/TR100.png","190","test",".","image-keyboard-response","588","490000","0.0-4.0-1.202","true"
"976","ImagesDirect/VL107.5.png","188","test",",","image-keyboard-response","590","491493","0.0-4.0-1.203","true"
"913","ImagesSoccer/VL105.png","188","test",",","image-keyboard-response","592","492923","0.0-4.0-1.204","true"
"761","ImagesTennis/TL110.png","188","test",",","image-keyboard-response","594","494192","0.0-4.0-1.205","true"
"978","ImagesDirect/VR90.png","188","test",",","image-keyboard-response","596","495674","0.0-4.0-1.206","true"
"901","ImagesTennis/TL97.5.png","190","test",".","image-keyboard-response","598","497078","0.0-4.0-1.207","true"
"1096","ImagesTennis/TR107.5.png","190","test",".","image-keyboard-response","600","498691","0.0-4.0-1.208","true"
"1086","ImagesDirect/VR102.5.png","190","test",".","image-keyboard-response","602","500287","0.0-4.0-1.209","true"
"710","ImagesTennis/TR90.png","188","test",",","image-keyboard-response","604","501518","0.0-4.0-1.210","true"
"1212","ImagesTennis/TR102.5.png","188","test",".","image-keyboard-response","606","503247","0.0-4.0-1.211","false"
"626","ImagesTennis/TL92.5.png","190","test",".","image-keyboard-response","608","504377","0.0-4.0-1.212","true"
"846","ImagesDirect/VL110.png","188","test",",","image-keyboard-response","610","505731","0.0-4.0-1.213","true"
"900","ImagesDirect/VL97.5.png","190","test",".","image-keyboard-response","612","507146","0.0-4.0-1.214","true"
"790","ImagesDirect/VR92.5.png","188","test",",","image-keyboard-response","614","508444","0.0-4.0-1.215","true"
"970","ImagesTennis/TR100.png","188","test",".","image-keyboard-response","616","509931","0.0-4.0-1.216","false"
"1036","ImagesSoccer/VR92.5.png","188","test",",","image-keyboard-response","618","511485","0.0-4.0-1.217","true"
"860","ImagesDirect/VR105.png","190","test",".","image-keyboard-response","620","512864","0.0-4.0-1.218","true"
"1553","ImagesDirect/VL90.png","190","test",".","image-keyboard-response","622","514924","0.0-4.0-1.219","true"
"749","ImagesTennis/TL110.png","188","test",",","image-keyboard-response","624","516176","0.0-4.0-1.220","true"
"721","ImagesTennis/TR107.5.png","190","test",".","image-keyboard-response","626","517412","0.0-4.0-1.221","true"
"1307","ImagesDirect/VR107.5.png","190","test",".","image-keyboard-response","628","519228","0.0-4.0-1.222","true"
"667","ImagesTennis/TL105.png","188","test",",","image-keyboard-response","630","520399","0.0-4.0-1.223","true"
"714","ImagesDirect/VL92.5.png","190","test",".","image-keyboard-response","632","521622","0.0-4.0-1.224","true"
"594","ImagesSoccer/VR102.5.png","190","test",".","image-keyboard-response","634","522729","0.0-4.0-1.225","true"
"1348","ImagesDirect/VL105.png","188","test",",","image-keyboard-response","636","524579","0.0-4.0-1.226","true"
"999","ImagesTennis/TR95.png","188","test",",","image-keyboard-response","638","526084","0.0-4.0-1.227","true"
"754","ImagesDirect/VL102.5.png","188","test",",","image-keyboard-response","640","527348","0.0-4.0-1.228","true"
"645","ImagesDirect/VR97.5.png","190","test",",","image-keyboard-response","642","528495","0.0-4.0-1.229","false"
"1146","ImagesTennis/TL92.5.png","190","test",".","image-keyboard-response","644","530150","0.0-4.0-1.230","true"
"669","ImagesTennis/TL100.png","188","test",".","image-keyboard-response","646","531335","0.0-4.0-1.231","false"
"829","ImagesTennis/TL90.png","190","test",".","image-keyboard-response","648","532680","0.0-4.0-1.232","true"
"924","ImagesDirect/VL107.5.png","188","test",",","image-keyboard-response","650","534118","0.0-4.0-1.233","true"
"589","ImagesSoccer/VR107.5.png","190","test",".","image-keyboard-response","652","535227","0.0-4.0-1.234","true"
"814","ImagesDirect/VR100.png","190","test",".","image-keyboard-response","654","536550","0.0-4.0-1.235","true"
"791","ImagesDirect/VL97.5.png","188","test",".","image-keyboard-response","656","537855","0.0-4.0-1.236","false"
"583","ImagesSoccer/VL92.5.png","188","test",".","image-keyboard-response","658","538948","0.0-4.0-1.237","false"
"1513","ImagesDirect/VR92.5.png","188","test",",","image-keyboard-response","660","540965","0.0-4.0-1.238","true"
"735","ImagesTennis/TR102.5.png","190","test",".","image-keyboard-response","662","542203","0.0-4.0-1.239","true"
"1722","ImagesDirect/VL100.png","188","test",".","image-keyboard-response","664","544437","0.0-4.0-1.240","false"
"1000","ImagesTennis/TL95.png","190","test",".","image-keyboard-response","666","545944","0.0-4.0-1.241","true"
"1055","ImagesDirect/VR110.png","190","test",".","image-keyboard-response","668","547517","0.0-4.0-1.242","true"
"1157","ImagesTennis/TR105.png","188","test",".","image-keyboard-response","670","549180","0.0-4.0-1.243","false"
"988","ImagesSoccer/VR97.5.png","190","test",",","image-keyboard-response","672","550670","0.0-4.0-1.244","false"
"1086","ImagesSoccer/VL107.5.png","188","test",",","image-keyboard-response","674","552264","0.0-4.0-1.245","true"
"1328","ImagesSoccer/VR90.png","188","test",",","image-keyboard-response","676","554101","0.0-4.0-1.246","true"
"908","ImagesTennis/TL107.5.png","190","test",",","image-keyboard-response","678","555528","0.0-4.0-1.247","false"
"749","ImagesDirect/VR102.5.png","190","test",".","image-keyboard-response","680","556780","0.0-4.0-1.248","true"
"607","ImagesSoccer/VR110.png","190","test",".","image-keyboard-response","682","557897","0.0-4.0-1.249","true"
"1067","ImagesSoccer/VL90.png","190","test",".","image-keyboard-response","684","559469","0.0-4.0-1.250","true"
"1041","ImagesDirect/VR90.png","188","test",",","image-keyboard-response","686","561020","0.0-4.0-1.251","true"
"867","ImagesTennis/TR92.5.png","188","test",",","image-keyboard-response","688","562394","0.0-4.0-1.252","true"
"1228","ImagesTennis/TR97.5.png","188","test",",","image-keyboard-response","690","564139","0.0-4.0-1.253","true"
"1477","ImagesSoccer/VR105.png","190","test",".","image-keyboard-response","692","566135","0.0-4.0-1.254","true"
"658","ImagesSoccer/VR100.png","190","test",".","image-keyboard-response","694","567314","0.0-4.0-1.255","true"
"671","ImagesSoccer/VL105.png","188","test",",","image-keyboard-response","696","568493","0.0-4.0-1.256","true"
"857","ImagesTennis/TR90.png","188","test",",","image-keyboard-response","698","569868","0.0-4.0-1.257","true"
"665","ImagesSoccer/VL102.5.png","188","test",",","image-keyboard-response","700","571035","0.0-4.0-1.258","true"
"715","ImagesTennis/TL102.5.png","188","test",",","image-keyboard-response","702","572257","0.0-4.0-1.259","true"
"1213","ImagesSoccer/VL97.5.png","188","test",".","image-keyboard-response","704","573972","0.0-4.0-1.260","false"
"609","ImagesTennis/TL97.5.png","188","test",".","image-keyboard-response","706","575086","0.0-4.0-1.261","false"
"725","ImagesSoccer/VL100.png","188","test",".","image-keyboard-response","708","576332","0.0-4.0-1.262","false"
"1955","ImagesDirect/VR95.png","190","test",",","image-keyboard-response","710","578791","0.0-4.0-1.263","false"
"691","ImagesSoccer/VL95.png","188","test",".","image-keyboard-response","712","579996","0.0-4.0-1.264","false"
"735","ImagesDirect/VL110.png","188","test",",","image-keyboard-response","714","581249","0.0-4.0-1.265","true"
"593","ImagesSoccer/VL110.png","188","test",",","image-keyboard-response","716","582359","0.0-4.0-1.266","true"
"828","ImagesDirect/VL95.png","190","test",".","image-keyboard-response","718","583699","0.0-4.0-1.267","true"
"1532","ImagesSoccer/VR95.png","190","test",",","image-keyboard-response","720","585749","0.0-4.0-1.268","false"
"717","ImagesTennis/TR110.png","190","test",".","image-keyboard-response","722","586984","0.0-4.0-1.269","true"
