"rt","stimulus","key_press","test_part","correct_response","trial_type","trial_index","time_elapsed","internal_node_id","correct"
"6732","ImagesCoins/10L105.png","188","test",",","image-keyboard-response","4","28276","0.0-3.0-1.0","true"
"4447","ImagesCoins/10L107.5.png","188","test",",","image-keyboard-response","6","33226","0.0-3.0-1.1","true"
"2162","ImagesCoins/10R90.png","188","test",",","image-keyboard-response","8","35891","0.0-3.0-1.2","true"
"2029","ImagesCoins/10L92.5.png","190","test",".","image-keyboard-response","10","38422","0.0-3.0-1.3","true"
"6047","ImagesCoins/10R92.5.png","190","test",",","image-keyboard-response","12","44971","0.0-3.0-1.4","false"
"1686","ImagesCoins/10R102.5.png","190","test",".","image-keyboard-response","14","47159","0.0-3.0-1.5","true"
"1477","ImagesCoins/10R110.png","190","test",".","image-keyboard-response","16","49139","0.0-3.0-1.6","true"
"2376","ImagesCoins/10R105.png","190","test",".","image-keyboard-response","18","52018","0.0-3.0-1.7","true"
"4151","ImagesCoins/10L95.png","190","test",".","image-keyboard-response","20","56670","0.0-3.0-1.8","true"
"6536","ImagesCoins/10R97.5.png","190","test",",","image-keyboard-response","22","63707","0.0-3.0-1.9","false"
"846","ImagesCoins/10R107.5.png","190","test",".","image-keyboard-response","24","65055","0.0-3.0-1.10","true"
"810","ImagesCoins/10L110.png","188","test",",","image-keyboard-response","26","66367","0.0-3.0-1.11","true"
"1298","ImagesCoins/10L102.5.png","188","test",",","image-keyboard-response","28","68167","0.0-3.0-1.12","true"
"1981","ImagesCoins/10L97.5.png","190","test",".","image-keyboard-response","30","70651","0.0-3.0-1.13","true"
"842","ImagesCoins/10L90.png","190","test",".","image-keyboard-response","32","71995","0.0-3.0-1.14","true"
"1515","ImagesCoins/10R95.png","190","test",",","image-keyboard-response","34","74011","0.0-3.0-1.15","false"
"2954","ImagesCoins/10R100.png","190","test",".","image-keyboard-response","36","77467","0.0-3.0-1.16","true"
"4276","ImagesCoins/10L100.png","188","test",".","image-keyboard-response","38","82245","0.0-3.0-1.17","false"
"3213","ImagesCoins/10L92.5.png","190","test",".","image-keyboard-response","40","85959","0.0-3.0-1.18","true"
"701","ImagesCoins/10R110.png","190","test",".","image-keyboard-response","42","87164","0.0-3.0-1.19","true"
"746","ImagesCoins/10R102.5.png","190","test",".","image-keyboard-response","44","88411","0.0-3.0-1.20","true"
"1245","ImagesCoins/10L102.5.png","188","test",",","image-keyboard-response","46","90159","0.0-3.0-1.21","true"
"7723","ImagesCoins/10L100.png","188","test",".","image-keyboard-response","48","98383","0.0-3.0-1.22","false"
"967","ImagesCoins/10R105.png","190","test",".","image-keyboard-response","50","99854","0.0-3.0-1.23","true"
"744","ImagesCoins/10L107.5.png","188","test",",","image-keyboard-response","52","101100","0.0-3.0-1.24","true"
"1713","ImagesCoins/10R95.png","190","test",",","image-keyboard-response","54","103315","0.0-3.0-1.25","false"
"2178","ImagesCoins/10L97.5.png","190","test",".","image-keyboard-response","56","105995","0.0-3.0-1.26","true"
"1319","ImagesCoins/10L95.png","190","test",".","image-keyboard-response","58","107815","0.0-3.0-1.27","true"
"5982","ImagesCoins/10R90.png","188","test",",","image-keyboard-response","60","114299","0.0-3.0-1.28","true"
"1301","ImagesCoins/10L90.png","190","test",".","image-keyboard-response","62","116103","0.0-3.0-1.29","true"
"2052","ImagesCoins/10R92.5.png","190","test",",","image-keyboard-response","64","118656","0.0-3.0-1.30","false"
"842","ImagesCoins/10L105.png","188","test",",","image-keyboard-response","66","119999","0.0-3.0-1.31","true"
"3283","ImagesCoins/10R97.5.png","190","test",",","image-keyboard-response","68","123783","0.0-3.0-1.32","false"
"679","ImagesCoins/10L110.png","188","test",",","image-keyboard-response","70","124967","0.0-3.0-1.33","true"
"662","ImagesCoins/10R107.5.png","190","test",".","image-keyboard-response","72","126130","0.0-3.0-1.34","true"
"1038","ImagesCoins/10R100.png","190","test",".","image-keyboard-response","74","127670","0.0-3.0-1.35","true"
"1210","ImagesCoins/10L102.5.png","188","test",",","image-keyboard-response","76","129383","0.0-3.0-1.36","true"
"780","ImagesCoins/10R102.5.png","190","test",".","image-keyboard-response","78","130666","0.0-3.0-1.37","true"
"610","ImagesCoins/10L90.png","190","test",".","image-keyboard-response","80","131778","0.0-3.0-1.38","true"
"7638","ImagesCoins/10R92.5.png","188","test",",","image-keyboard-response","82","139918","0.0-3.0-1.39","true"
"1050","ImagesCoins/10L107.5.png","188","test",",","image-keyboard-response","84","141470","0.0-3.0-1.40","true"
"2087","ImagesCoins/10L100.png","188","test",".","image-keyboard-response","86","144058","0.0-3.0-1.41","false"
"2489","ImagesCoins/10L97.5.png","190","test",".","image-keyboard-response","88","147050","0.0-3.0-1.42","true"
"663","ImagesCoins/10L110.png","188","test",",","image-keyboard-response","90","148215","0.0-3.0-1.43","true"
"777","ImagesCoins/10L95.png","190","test",".","image-keyboard-response","92","149494","0.0-3.0-1.44","true"
"766","ImagesCoins/10L92.5.png","190","test",".","image-keyboard-response","94","150762","0.0-3.0-1.45","true"
"602","ImagesCoins/10R105.png","190","test",".","image-keyboard-response","96","151866","0.0-3.0-1.46","true"
"1246","ImagesCoins/10L105.png","188","test",",","image-keyboard-response","98","153614","0.0-3.0-1.47","true"
"578","ImagesCoins/10R107.5.png","190","test",".","image-keyboard-response","100","154695","0.0-3.0-1.48","true"
"1676","ImagesCoins/10R100.png","190","test",".","image-keyboard-response","102","156875","0.0-3.0-1.49","true"
"757","ImagesCoins/10R95.png","188","test",",","image-keyboard-response","104","158134","0.0-3.0-1.50","true"
"667","ImagesCoins/10R97.5.png","190","test",",","image-keyboard-response","106","159302","0.0-3.0-1.51","false"
"582","ImagesCoins/10R110.png","190","test",".","image-keyboard-response","108","160386","0.0-3.0-1.52","true"
"997","ImagesCoins/10R90.png","188","test",",","image-keyboard-response","110","161884","0.0-3.0-1.53","true"
"1384","ImagesCoins/10L100.png","188","test",".","image-keyboard-response","112","163770","0.0-3.0-1.54","false"
"749","ImagesCoins/10L110.png","188","test",",","image-keyboard-response","114","165022","0.0-3.0-1.55","true"
"1724","ImagesCoins/10L102.5.png","188","test",",","image-keyboard-response","116","167250","0.0-3.0-1.56","true"
"922","ImagesCoins/10R100.png","190","test",".","image-keyboard-response","118","168674","0.0-3.0-1.57","true"
"570","ImagesCoins/10R110.png","190","test",".","image-keyboard-response","120","169746","0.0-3.0-1.58","true"
"2606","ImagesCoins/10R95.png","190","test",",","image-keyboard-response","122","172854","0.0-3.0-1.59","false"
"748","ImagesCoins/10R90.png","188","test",",","image-keyboard-response","124","174106","0.0-3.0-1.60","true"
"1248","ImagesCoins/10R92.5.png","188","test",",","image-keyboard-response","126","175856","0.0-3.0-1.61","true"
"776","ImagesCoins/10R97.5.png","190","test",",","image-keyboard-response","128","177135","0.0-3.0-1.62","false"
"785","ImagesCoins/10L97.5.png","190","test",".","image-keyboard-response","130","178422","0.0-3.0-1.63","true"
"622","ImagesCoins/10R107.5.png","190","test",".","image-keyboard-response","132","179546","0.0-3.0-1.64","true"
"566","ImagesCoins/10L107.5.png","188","test",",","image-keyboard-response","134","180615","0.0-3.0-1.65","true"
"879","ImagesCoins/10L90.png","190","test",".","image-keyboard-response","136","181995","0.0-3.0-1.66","true"
"866","ImagesCoins/10L105.png","188","test",",","image-keyboard-response","138","183364","0.0-3.0-1.67","true"
"708","ImagesCoins/10R105.png","190","test",".","image-keyboard-response","140","184575","0.0-3.0-1.68","true"
"606","ImagesCoins/10R102.5.png","190","test",".","image-keyboard-response","142","185683","0.0-3.0-1.69","true"
"2295","ImagesCoins/10L95.png","190","test",".","image-keyboard-response","144","188479","0.0-3.0-1.70","true"
"794","ImagesCoins/10L92.5.png","190","test",".","image-keyboard-response","146","189775","0.0-3.0-1.71","true"
"660","ImagesCoins/10R107.5.png","190","test",".","image-keyboard-response","148","190939","0.0-3.0-1.72","true"
"1778","ImagesCoins/10L97.5.png","190","test",".","image-keyboard-response","150","193218","0.0-3.0-1.73","true"
"795","ImagesCoins/10R102.5.png","190","test",".","image-keyboard-response","152","194515","0.0-3.0-1.74","true"
"893","ImagesCoins/10R100.png","190","test",".","image-keyboard-response","154","195911","0.0-3.0-1.75","true"
"618","ImagesCoins/10R110.png","190","test",".","image-keyboard-response","156","197030","0.0-3.0-1.76","true"
"1570","ImagesCoins/10L100.png","188","test",".","image-keyboard-response","158","199102","0.0-3.0-1.77","false"
"742","ImagesCoins/10L102.5.png","188","test",",","image-keyboard-response","160","200347","0.0-3.0-1.78","true"
"601","ImagesCoins/10L90.png","190","test",".","image-keyboard-response","162","201450","0.0-3.0-1.79","true"
"611","ImagesCoins/10L105.png","188","test",",","image-keyboard-response","164","202563","0.0-3.0-1.80","true"
"812","ImagesCoins/10R90.png","188","test",",","image-keyboard-response","166","203878","0.0-3.0-1.81","true"
"715","ImagesCoins/10L107.5.png","188","test",",","image-keyboard-response","168","205096","0.0-3.0-1.82","true"
"712","ImagesCoins/10L92.5.png","190","test",".","image-keyboard-response","170","206310","0.0-3.0-1.83","true"
"1129","ImagesCoins/10L95.png","190","test",".","image-keyboard-response","172","207942","0.0-3.0-1.84","true"
"711","ImagesCoins/10R97.5.png","190","test",",","image-keyboard-response","174","209155","0.0-3.0-1.85","false"
"632","ImagesCoins/10R105.png","190","test",".","image-keyboard-response","176","210290","0.0-3.0-1.86","true"
"541","ImagesCoins/10L110.png","188","test",",","image-keyboard-response","178","211335","0.0-3.0-1.87","true"
"909","ImagesCoins/10R95.png","188","test",",","image-keyboard-response","180","212746","0.0-3.0-1.88","true"
"1479","ImagesCoins/10R92.5.png","188","test",",","image-keyboard-response","182","214729","0.0-3.0-1.89","true"
"5572","ImagesDirect/VL102.5.png","188","test",",","image-keyboard-response","184","220803","0.0-4.0-1.0","true"
"1461","ImagesSoccer/VL110.png","188","test",",","image-keyboard-response","186","222767","0.0-4.0-1.1","true"
"2202","ImagesTennis/TL90.png","190","test",".","image-keyboard-response","188","225470","0.0-4.0-1.2","true"
"866","ImagesDirect/VR107.5.png","190","test",".","image-keyboard-response","190","226838","0.0-4.0-1.3","true"
"1294","ImagesSoccer/VL100.png","188","test",".","image-keyboard-response","192","228634","0.0-4.0-1.4","false"
"1510","ImagesDirect/VR110.png","190","test",".","image-keyboard-response","194","230646","0.0-4.0-1.5","true"
"2998","ImagesDirect/VL100.png","190","test",".","image-keyboard-response","196","234147","0.0-4.0-1.6","true"
"1917","ImagesSoccer/VR102.5.png","190","test",".","image-keyboard-response","198","236566","0.0-4.0-1.7","true"
"3246","ImagesTennis/TR92.5.png","188","test",",","image-keyboard-response","200","240314","0.0-4.0-1.8","true"
"887","ImagesTennis/TR100.png","190","test",".","image-keyboard-response","202","241703","0.0-4.0-1.9","true"
"5064","ImagesSoccer/VR90.png","188","test",",","image-keyboard-response","204","247269","0.0-4.0-1.10","true"
"910","ImagesTennis/TL107.5.png","188","test",",","image-keyboard-response","206","248682","0.0-4.0-1.11","true"
"1274","ImagesSoccer/VL95.png","190","test",".","image-keyboard-response","208","250459","0.0-4.0-1.12","true"
"4705","ImagesTennis/TR97.5.png","190","test",",","image-keyboard-response","210","255666","0.0-4.0-1.13","false"
"734","ImagesDirect/VL107.5.png","188","test",",","image-keyboard-response","212","256903","0.0-4.0-1.14","true"
"1078","ImagesTennis/TL97.5.png","190","test",".","image-keyboard-response","214","258482","0.0-4.0-1.15","true"
"1378","ImagesSoccer/VL107.5.png","188","test",",","image-keyboard-response","216","260362","0.0-4.0-1.16","true"
"826","ImagesSoccer/VL92.5.png","190","test",".","image-keyboard-response","218","261690","0.0-4.0-1.17","true"
"2768","ImagesDirect/VR105.png","188","test",".","image-keyboard-response","220","264959","0.0-4.0-1.18","false"
"849","ImagesTennis/TR107.5.png","190","test",".","image-keyboard-response","222","266310","0.0-4.0-1.19","true"
"1278","ImagesDirect/VL92.5.png","190","test",".","image-keyboard-response","224","268090","0.0-4.0-1.20","true"
"1967","ImagesDirect/VR102.5.png","190","test",".","image-keyboard-response","226","270558","0.0-4.0-1.21","true"
"9516","ImagesSoccer/VL102.5.png","188","test",",","image-keyboard-response","228","280578","0.0-4.0-1.22","true"
"6601","ImagesDirect/VR100.png","190","test",".","image-keyboard-response","230","287682","0.0-4.0-1.23","true"
"674","ImagesTennis/TR110.png","190","test",".","image-keyboard-response","232","288858","0.0-4.0-1.24","true"
"974","ImagesTennis/TR105.png","190","test",".","image-keyboard-response","234","290334","0.0-4.0-1.25","true"
"1758","ImagesSoccer/VR107.5.png","190","test",".","image-keyboard-response","236","292594","0.0-4.0-1.26","true"
"1243","ImagesDirect/VL95.png","190","test",".","image-keyboard-response","238","294338","0.0-4.0-1.27","true"
"2138","ImagesDirect/VL97.5.png","190","test",".","image-keyboard-response","240","296978","0.0-4.0-1.28","true"
"1742","ImagesSoccer/VR95.png","188","test",",","image-keyboard-response","242","299222","0.0-4.0-1.29","true"
"4288","ImagesSoccer/VR97.5.png","190","test",",","image-keyboard-response","244","304013","0.0-4.0-1.30","false"
"8275","ImagesTennis/TL95.png","188","test",".","image-keyboard-response","246","312790","0.0-4.0-1.31","false"
"1042","ImagesTennis/TL102.5.png","188","test",",","image-keyboard-response","248","314334","0.0-4.0-1.32","true"
"1803","ImagesTennis/TR95.png","188","test",",","image-keyboard-response","250","316638","0.0-4.0-1.33","true"
"1520","ImagesSoccer/VL97.5.png","188","test",".","image-keyboard-response","252","318661","0.0-4.0-1.34","false"
"799","ImagesSoccer/VR100.png","190","test",".","image-keyboard-response","254","319963","0.0-4.0-1.35","true"
"629","ImagesDirect/VL110.png","188","test",",","image-keyboard-response","256","321094","0.0-4.0-1.36","true"
"991","ImagesDirect/VR92.5.png","188","test",",","image-keyboard-response","258","322587","0.0-4.0-1.37","true"
"962","ImagesSoccer/VR92.5.png","188","test",",","image-keyboard-response","260","324050","0.0-4.0-1.38","true"
"635","ImagesTennis/TR102.5.png","190","test",".","image-keyboard-response","262","325186","0.0-4.0-1.39","true"
"840","ImagesDirect/VL90.png","190","test",".","image-keyboard-response","264","326527","0.0-4.0-1.40","true"
"800","ImagesTennis/TR90.png","188","test",",","image-keyboard-response","266","327830","0.0-4.0-1.41","true"
"662","ImagesTennis/TL92.5.png","190","test",".","image-keyboard-response","268","328992","0.0-4.0-1.42","true"
"665","ImagesTennis/TL110.png","188","test",",","image-keyboard-response","270","330159","0.0-4.0-1.43","true"
"674","ImagesDirect/VL105.png","188","test",",","image-keyboard-response","272","331334","0.0-4.0-1.44","true"
"867","ImagesSoccer/VL90.png","190","test",".","image-keyboard-response","274","332703","0.0-4.0-1.45","true"
"1372","ImagesDirect/VR95.png","188","test",",","image-keyboard-response","276","334578","0.0-4.0-1.46","true"
"1383","ImagesDirect/VR97.5.png","190","test",",","image-keyboard-response","278","336462","0.0-4.0-1.47","false"
"657","ImagesSoccer/VL105.png","188","test",",","image-keyboard-response","280","337622","0.0-4.0-1.48","true"
"831","ImagesSoccer/VR110.png","190","test",".","image-keyboard-response","282","338954","0.0-4.0-1.49","true"
"651","ImagesDirect/VR90.png","188","test",",","image-keyboard-response","284","340106","0.0-4.0-1.50","true"
"990","ImagesTennis/TL105.png","188","test",",","image-keyboard-response","286","341598","0.0-4.0-1.51","true"
"913","ImagesTennis/TL100.png","188","test",".","image-keyboard-response","288","343014","0.0-4.0-1.52","false"
"651","ImagesSoccer/VR105.png","190","test",".","image-keyboard-response","290","344166","0.0-4.0-1.53","true"
"2139","ImagesTennis/TL97.5.png","188","test",".","image-keyboard-response","292","346807","0.0-4.0-1.54","false"
"733","ImagesTennis/TL105.png","188","test",",","image-keyboard-response","294","348042","0.0-4.0-1.55","true"
"517","ImagesTennis/TR110.png","190","test",".","image-keyboard-response","296","349062","0.0-4.0-1.56","true"
"1419","ImagesSoccer/VR105.png","190","test",".","image-keyboard-response","298","350982","0.0-4.0-1.57","true"
"2186","ImagesSoccer/VR102.5.png","190","test",".","image-keyboard-response","300","353670","0.0-4.0-1.58","true"
"915","ImagesTennis/TL95.png","190","test",".","image-keyboard-response","302","355087","0.0-4.0-1.59","true"
"1154","ImagesDirect/VL92.5.png","190","test",".","image-keyboard-response","304","356742","0.0-4.0-1.60","true"
"754","ImagesTennis/TL102.5.png","188","test",",","image-keyboard-response","306","357998","0.0-4.0-1.61","true"
"2169","ImagesDirect/VL97.5.png","190","test",".","image-keyboard-response","308","360670","0.0-4.0-1.62","true"
"783","ImagesTennis/TR107.5.png","190","test",".","image-keyboard-response","310","361954","0.0-4.0-1.63","true"
"867","ImagesSoccer/VR110.png","190","test",".","image-keyboard-response","312","363323","0.0-4.0-1.64","true"
"1722","ImagesTennis/TR100.png","190","test",".","image-keyboard-response","314","365547","0.0-4.0-1.65","true"
"1407","ImagesSoccer/VL92.5.png","190","test",".","image-keyboard-response","316","367455","0.0-4.0-1.66","true"
"769","ImagesSoccer/VR92.5.png","188","test",",","image-keyboard-response","318","368727","0.0-4.0-1.67","true"
"1218","ImagesSoccer/VL110.png","188","test",",","image-keyboard-response","320","370447","0.0-4.0-1.68","true"
"1381","ImagesDirect/VR102.5.png","190","test",".","image-keyboard-response","322","372330","0.0-4.0-1.69","true"
"842","ImagesDirect/VL107.5.png","188","test",",","image-keyboard-response","324","373674","0.0-4.0-1.70","true"
"814","ImagesDirect/VR100.png","190","test",".","image-keyboard-response","326","374990","0.0-4.0-1.71","true"
"1772","ImagesSoccer/VR107.5.png","190","test",".","image-keyboard-response","328","377263","0.0-4.0-1.72","true"
"762","ImagesTennis/TR92.5.png","188","test",",","image-keyboard-response","330","378527","0.0-4.0-1.73","true"
"809","ImagesTennis/TL110.png","188","test",",","image-keyboard-response","332","379838","0.0-4.0-1.74","true"
"943","ImagesSoccer/VR100.png","190","test",".","image-keyboard-response","334","381283","0.0-4.0-1.75","true"
"890","ImagesDirect/VR105.png","190","test",".","image-keyboard-response","336","382674","0.0-4.0-1.76","true"
"1042","ImagesTennis/TR95.png","188","test",",","image-keyboard-response","338","384218","0.0-4.0-1.77","true"
"1163","ImagesSoccer/VL97.5.png","188","test",".","image-keyboard-response","340","385882","0.0-4.0-1.78","false"
"700","ImagesTennis/TR105.png","190","test",".","image-keyboard-response","342","387083","0.0-4.0-1.79","true"
"838","ImagesDirect/VR107.5.png","190","test",".","image-keyboard-response","344","388422","0.0-4.0-1.80","true"
"975","ImagesDirect/VR97.5.png","188","test",",","image-keyboard-response","346","389899","0.0-4.0-1.81","true"
"701","ImagesDirect/VL105.png","188","test",",","image-keyboard-response","348","391102","0.0-4.0-1.82","true"
"542","ImagesDirect/VL90.png","190","test",".","image-keyboard-response","350","392147","0.0-4.0-1.83","true"
"3078","ImagesTennis/TL100.png","190","test",".","image-keyboard-response","352","395726","0.0-4.0-1.84","true"
"686","ImagesTennis/TR102.5.png","190","test",".","image-keyboard-response","354","396915","0.0-4.0-1.85","true"
"735","ImagesTennis/TL107.5.png","188","test",",","image-keyboard-response","356","398152","0.0-4.0-1.86","true"
"1265","ImagesSoccer/VL105.png","188","test",",","image-keyboard-response","358","399918","0.0-4.0-1.87","true"
"615","ImagesSoccer/VL90.png","190","test",".","image-keyboard-response","360","401034","0.0-4.0-1.88","true"
"3034","ImagesTennis/TL92.5.png","190","test",".","image-keyboard-response","362","404570","0.0-4.0-1.89","true"
"1977","ImagesDirect/VR92.5.png","188","test",",","image-keyboard-response","364","407050","0.0-4.0-1.90","true"
"644","ImagesSoccer/VL100.png","190","test",".","image-keyboard-response","366","408196","0.0-4.0-1.91","true"
"817","ImagesTennis/TR90.png","188","test",",","image-keyboard-response","368","409514","0.0-4.0-1.92","true"
"746","ImagesDirect/VR95.png","188","test",",","image-keyboard-response","370","410762","0.0-4.0-1.93","true"
"699","ImagesDirect/VL95.png","190","test",".","image-keyboard-response","372","411962","0.0-4.0-1.94","true"
"1875","ImagesSoccer/VL102.5.png","188","test",",","image-keyboard-response","374","414339","0.0-4.0-1.95","true"
"894","ImagesSoccer/VR90.png","188","test",",","image-keyboard-response","376","415734","0.0-4.0-1.96","true"
"605","ImagesSoccer/VL95.png","190","test",".","image-keyboard-response","378","416842","0.0-4.0-1.97","true"
"879","ImagesDirect/VL100.png","190","test",".","image-keyboard-response","380","418222","0.0-4.0-1.98","true"
"1210","ImagesSoccer/VR95.png","188","test",",","image-keyboard-response","382","419934","0.0-4.0-1.99","true"
"614","ImagesTennis/TL90.png","190","test",".","image-keyboard-response","384","421050","0.0-4.0-1.100","true"
"782","ImagesTennis/TR97.5.png","188","test",",","image-keyboard-response","386","422334","0.0-4.0-1.101","true"
"862","ImagesSoccer/VR97.5.png","190","test",",","image-keyboard-response","388","423698","0.0-4.0-1.102","false"
"887","ImagesDirect/VL102.5.png","190","test",",","image-keyboard-response","390","425087","0.0-4.0-1.103","false"
"647","ImagesDirect/VL110.png","188","test",",","image-keyboard-response","392","426235","0.0-4.0-1.104","true"
"701","ImagesDirect/VR90.png","188","test",",","image-keyboard-response","394","427438","0.0-4.0-1.105","true"
"890","ImagesSoccer/VL107.5.png","188","test",",","image-keyboard-response","396","428830","0.0-4.0-1.106","true"
"745","ImagesDirect/VR110.png","190","test",".","image-keyboard-response","398","430078","0.0-4.0-1.107","true"
"880","ImagesDirect/VL100.png","190","test",".","image-keyboard-response","400","431460","0.0-4.0-1.108","true"
"1204","ImagesSoccer/VR107.5.png","190","test",".","image-keyboard-response","402","433167","0.0-4.0-1.109","true"
"2212","ImagesTennis/TR97.5.png","188","test",",","image-keyboard-response","404","435882","0.0-4.0-1.110","true"
"641","ImagesTennis/TL110.png","188","test",",","image-keyboard-response","406","437024","0.0-4.0-1.111","true"
"669","ImagesSoccer/VL102.5.png","188","test",",","image-keyboard-response","408","438194","0.0-4.0-1.112","true"
"2146","ImagesTennis/TL105.png","188","test",",","image-keyboard-response","410","440842","0.0-4.0-1.113","true"
"843","ImagesDirect/VR102.5.png","190","test",".","image-keyboard-response","412","442186","0.0-4.0-1.114","true"
"578","ImagesSoccer/VR110.png","190","test",".","image-keyboard-response","414","443267","0.0-4.0-1.115","true"
"674","ImagesTennis/TL90.png","190","test",".","image-keyboard-response","416","444442","0.0-4.0-1.116","true"
"866","ImagesDirect/VR110.png","190","test",".","image-keyboard-response","418","445810","0.0-4.0-1.117","true"
"998","ImagesDirect/VL92.5.png","190","test",".","image-keyboard-response","420","447310","0.0-4.0-1.118","true"
"3162","ImagesTennis/TL95.png","190","test",".","image-keyboard-response","422","450974","0.0-4.0-1.119","true"
"754","ImagesTennis/TR100.png","190","test",".","image-keyboard-response","424","452230","0.0-4.0-1.120","true"
"2354","ImagesSoccer/VR100.png","190","test",".","image-keyboard-response","426","455086","0.0-4.0-1.121","true"
"878","ImagesSoccer/VL97.5.png","188","test",".","image-keyboard-response","428","456466","0.0-4.0-1.122","false"
"706","ImagesDirect/VL110.png","188","test",",","image-keyboard-response","430","457674","0.0-4.0-1.123","true"
"545","ImagesTennis/TR110.png","190","test",".","image-keyboard-response","432","458722","0.0-4.0-1.124","true"
"507","ImagesSoccer/VR105.png","190","test",".","image-keyboard-response","434","459731","0.0-4.0-1.125","true"
"902","ImagesSoccer/VL92.5.png","190","test",".","image-keyboard-response","436","461134","0.0-4.0-1.126","true"
"630","ImagesTennis/TL97.5.png","190","test",".","image-keyboard-response","438","462267","0.0-4.0-1.127","true"
"713","ImagesDirect/VR95.png","188","test",",","image-keyboard-response","440","463482","0.0-4.0-1.128","true"
"1411","ImagesTennis/TL102.5.png","188","test",",","image-keyboard-response","442","465394","0.0-4.0-1.129","true"
"685","ImagesTennis/TL107.5.png","188","test",",","image-keyboard-response","444","466582","0.0-4.0-1.130","true"
"1255","ImagesDirect/VL97.5.png","190","test",".","image-keyboard-response","446","468338","0.0-4.0-1.131","true"
"574","ImagesDirect/VL107.5.png","188","test",",","image-keyboard-response","448","469414","0.0-4.0-1.132","true"
"1678","ImagesSoccer/VL107.5.png","188","test",",","image-keyboard-response","450","471595","0.0-4.0-1.133","true"
"1042","ImagesTennis/TL92.5.png","190","test",".","image-keyboard-response","452","473138","0.0-4.0-1.134","true"
"1214","ImagesDirect/VR105.png","190","test",".","image-keyboard-response","454","474854","0.0-4.0-1.135","true"
"603","ImagesDirect/VL102.5.png","188","test",",","image-keyboard-response","456","475959","0.0-4.0-1.136","true"
"2309","ImagesSoccer/VR97.5.png","190","test",",","image-keyboard-response","458","478771","0.0-4.0-1.137","false"
"575","ImagesDirect/VL90.png","190","test",".","image-keyboard-response","460","479850","0.0-4.0-1.138","true"
"1227","ImagesTennis/TR92.5.png","188","test",",","image-keyboard-response","462","481578","0.0-4.0-1.139","true"
"1479","ImagesSoccer/VL90.png","190","test",".","image-keyboard-response","464","483559","0.0-4.0-1.140","true"
"709","ImagesSoccer/VR102.5.png","190","test",".","image-keyboard-response","466","484770","0.0-4.0-1.141","true"
"1134","ImagesTennis/TR95.png","190","test",",","image-keyboard-response","468","486406","0.0-4.0-1.142","false"
"722","ImagesTennis/TL100.png","190","test",".","image-keyboard-response","470","487630","0.0-4.0-1.143","true"
"2466","ImagesDirect/VR100.png","190","test",".","image-keyboard-response","472","490598","0.0-4.0-1.144","true"
"979","ImagesSoccer/VL110.png","188","test",",","image-keyboard-response","474","492078","0.0-4.0-1.145","true"
"672","ImagesTennis/TR102.5.png","190","test",".","image-keyboard-response","476","493253","0.0-4.0-1.146","true"
"575","ImagesDirect/VR90.png","188","test",",","image-keyboard-response","478","494330","0.0-4.0-1.147","true"
"858","ImagesSoccer/VR92.5.png","188","test",",","image-keyboard-response","480","495690","0.0-4.0-1.148","true"
"458","ImagesSoccer/VL105.png","190","test",",","image-keyboard-response","482","496649","0.0-4.0-1.149","false"
"1313","ImagesDirect/VL95.png","190","test",".","image-keyboard-response","484","498466","0.0-4.0-1.150","true"
"1049","ImagesTennis/TR105.png","190","test",".","image-keyboard-response","486","500017","0.0-4.0-1.151","true"
"714","ImagesTennis/TR107.5.png","190","test",".","image-keyboard-response","488","501234","0.0-4.0-1.152","true"
"904","ImagesSoccer/VR90.png","188","test",",","image-keyboard-response","490","502642","0.0-4.0-1.153","true"
"1062","ImagesDirect/VL105.png","188","test",",","image-keyboard-response","492","504206","0.0-4.0-1.154","true"
"3546","ImagesDirect/VR97.5.png","190","test",",","image-keyboard-response","494","508254","0.0-4.0-1.155","false"
"777","ImagesDirect/VR107.5.png","190","test",".","image-keyboard-response","496","509534","0.0-4.0-1.156","true"
"2081","ImagesSoccer/VR95.png","188","test",",","image-keyboard-response","498","512117","0.0-4.0-1.157","true"
"1557","ImagesSoccer/VL100.png","190","test",".","image-keyboard-response","500","514178","0.0-4.0-1.158","true"
"1279","ImagesDirect/VR92.5.png","188","test",",","image-keyboard-response","502","515958","0.0-4.0-1.159","true"
"1022","ImagesSoccer/VL95.png","190","test",".","image-keyboard-response","504","517482","0.0-4.0-1.160","true"
"713","ImagesTennis/TR90.png","188","test",",","image-keyboard-response","506","518698","0.0-4.0-1.161","true"
"653","ImagesDirect/VL105.png","188","test",",","image-keyboard-response","508","519853","0.0-4.0-1.162","true"
"622","ImagesDirect/VL95.png","190","test",".","image-keyboard-response","510","520978","0.0-4.0-1.163","true"
"925","ImagesTennis/TL110.png","188","test",",","image-keyboard-response","512","522405","0.0-4.0-1.164","true"
"636","ImagesDirect/VR102.5.png","190","test",".","image-keyboard-response","514","523543","0.0-4.0-1.165","true"
"1118","ImagesSoccer/VL92.5.png","188","test",".","image-keyboard-response","516","525166","0.0-4.0-1.166","false"
"541","ImagesTennis/TR102.5.png","190","test",".","image-keyboard-response","518","526210","0.0-4.0-1.167","true"
"1347","ImagesSoccer/VL102.5.png","188","test",",","image-keyboard-response","520","528059","0.0-4.0-1.168","true"
"4369","ImagesTennis/TR97.5.png","188","test",",","image-keyboard-response","522","532930","0.0-4.0-1.169","true"
"878","ImagesTennis/TR95.png","188","test",",","image-keyboard-response","524","534309","0.0-4.0-1.170","true"
"606","ImagesTennis/TR110.png","190","test",".","image-keyboard-response","526","535417","0.0-4.0-1.171","true"
"1103","ImagesSoccer/VL97.5.png","188","test",".","image-keyboard-response","528","537022","0.0-4.0-1.172","false"
"601","ImagesSoccer/VL95.png","190","test",".","image-keyboard-response","530","538125","0.0-4.0-1.173","true"
"2449","ImagesDirect/VR110.png","190","test",".","image-keyboard-response","532","541078","0.0-4.0-1.174","true"
"583","ImagesSoccer/VL110.png","188","test",",","image-keyboard-response","534","542163","0.0-4.0-1.175","true"
"1040","ImagesSoccer/VL100.png","190","test",".","image-keyboard-response","536","543705","0.0-4.0-1.176","true"
"1169","ImagesDirect/VL107.5.png","188","test",",","image-keyboard-response","538","545377","0.0-4.0-1.177","true"
"766","ImagesSoccer/VL107.5.png","188","test",",","image-keyboard-response","540","546645","0.0-4.0-1.178","true"
"615","ImagesTennis/TR100.png","190","test",".","image-keyboard-response","542","547762","0.0-4.0-1.179","true"
"813","ImagesSoccer/VR92.5.png","188","test",",","image-keyboard-response","544","549077","0.0-4.0-1.180","true"
"657","ImagesSoccer/VR105.png","190","test",".","image-keyboard-response","546","550237","0.0-4.0-1.181","true"
"654","ImagesTennis/TR107.5.png","190","test",".","image-keyboard-response","548","551393","0.0-4.0-1.182","true"
"542","ImagesTennis/TR92.5.png","188","test",",","image-keyboard-response","550","552437","0.0-4.0-1.183","true"
"7364","ImagesDirect/VL97.5.png","188","test",".","image-keyboard-response","552","560302","0.0-4.0-1.184","false"
"530","ImagesDirect/VL110.png","188","test",",","image-keyboard-response","554","561334","0.0-4.0-1.185","true"
"910","ImagesDirect/VR92.5.png","188","test",",","image-keyboard-response","556","562746","0.0-4.0-1.186","true"
"1269","ImagesTennis/TL102.5.png","190","test",",","image-keyboard-response","558","564517","0.0-4.0-1.187","false"
"590","ImagesTennis/TL100.png","190","test",".","image-keyboard-response","560","565609","0.0-4.0-1.188","true"
"570","ImagesTennis/TL90.png","190","test",".","image-keyboard-response","562","566681","0.0-4.0-1.189","true"
"622","ImagesSoccer/VL90.png","190","test",".","image-keyboard-response","564","567806","0.0-4.0-1.190","true"
"968","ImagesDirect/VL102.5.png","188","test",",","image-keyboard-response","566","569276","0.0-4.0-1.191","true"
"518","ImagesDirect/VR105.png","190","test",".","image-keyboard-response","568","570297","0.0-4.0-1.192","true"
"582","ImagesDirect/VR95.png","188","test",",","image-keyboard-response","570","571382","0.0-4.0-1.193","true"
"494","ImagesSoccer/VR102.5.png","190","test",".","image-keyboard-response","572","572377","0.0-4.0-1.194","true"
"797","ImagesSoccer/VR95.png","188","test",",","image-keyboard-response","574","573677","0.0-4.0-1.195","true"
"859","ImagesDirect/VR100.png","190","test",".","image-keyboard-response","576","575037","0.0-4.0-1.196","true"
"2058","ImagesDirect/VL100.png","188","test",".","image-keyboard-response","578","577597","0.0-4.0-1.197","false"
"983","ImagesSoccer/VR90.png","188","test",",","image-keyboard-response","580","579081","0.0-4.0-1.198","true"
"1081","ImagesTennis/TL95.png","190","test",".","image-keyboard-response","582","580665","0.0-4.0-1.199","true"
"1597","ImagesTennis/TL92.5.png","190","test",".","image-keyboard-response","584","582766","0.0-4.0-1.200","true"
"658","ImagesTennis/TL107.5.png","188","test",",","image-keyboard-response","586","583926","0.0-4.0-1.201","true"
"698","ImagesTennis/TR90.png","188","test",",","image-keyboard-response","588","585126","0.0-4.0-1.202","true"
"1667","ImagesTennis/TL105.png","190","test",",","image-keyboard-response","590","587295","0.0-4.0-1.203","false"
"660","ImagesDirect/VL90.png","190","test",".","image-keyboard-response","592","588457","0.0-4.0-1.204","true"
"747","ImagesTennis/TL97.5.png","190","test",".","image-keyboard-response","594","589706","0.0-4.0-1.205","true"
"1053","ImagesDirect/VL92.5.png","190","test",".","image-keyboard-response","596","591263","0.0-4.0-1.206","true"
"648","ImagesSoccer/VL105.png","188","test",",","image-keyboard-response","598","592413","0.0-4.0-1.207","true"
"574","ImagesSoccer/VR107.5.png","190","test",".","image-keyboard-response","600","593490","0.0-4.0-1.208","true"
"622","ImagesSoccer/VR100.png","188","test",".","image-keyboard-response","602","594614","0.0-4.0-1.209","false"
"754","ImagesDirect/VR107.5.png","190","test",".","image-keyboard-response","604","595869","0.0-4.0-1.210","true"
"711","ImagesTennis/TR105.png","190","test",".","image-keyboard-response","606","597082","0.0-4.0-1.211","true"
"675","ImagesSoccer/VR97.5.png","188","test",",","image-keyboard-response","608","598259","0.0-4.0-1.212","true"
"808","ImagesDirect/VR97.5.png","190","test",",","image-keyboard-response","610","599569","0.0-4.0-1.213","false"
"552","ImagesDirect/VR90.png","188","test",",","image-keyboard-response","612","600623","0.0-4.0-1.214","true"
"580","ImagesSoccer/VR110.png","190","test",".","image-keyboard-response","614","601705","0.0-4.0-1.215","true"
"642","ImagesTennis/TR90.png","188","test",",","image-keyboard-response","616","602849","0.0-4.0-1.216","true"
"727","ImagesSoccer/VR107.5.png","190","test",".","image-keyboard-response","618","604080","0.0-4.0-1.217","true"
"1262","ImagesSoccer/VL95.png","190","test",".","image-keyboard-response","620","605846","0.0-4.0-1.218","true"
"666","ImagesSoccer/VL102.5.png","188","test",",","image-keyboard-response","622","607014","0.0-4.0-1.219","true"
"1377","ImagesTennis/TR97.5.png","188","test",",","image-keyboard-response","624","608893","0.0-4.0-1.220","true"
"595","ImagesTennis/TR110.png","190","test",".","image-keyboard-response","626","609990","0.0-4.0-1.221","true"
"3829","ImagesTennis/TL97.5.png","190","test",".","image-keyboard-response","628","614321","0.0-4.0-1.222","true"
"547","ImagesSoccer/VL90.png","190","test",".","image-keyboard-response","630","615370","0.0-4.0-1.223","true"
"1234","ImagesDirect/VL92.5.png","190","test",".","image-keyboard-response","632","617106","0.0-4.0-1.224","true"
"934","ImagesTennis/TL100.png","188","test",".","image-keyboard-response","634","618542","0.0-4.0-1.225","false"
"573","ImagesDirect/VR90.png","188","test",",","image-keyboard-response","636","619617","0.0-4.0-1.226","true"
"808","ImagesTennis/TL107.5.png","188","test",",","image-keyboard-response","638","620926","0.0-4.0-1.227","true"
"1146","ImagesDirect/VL97.5.png","188","test",".","image-keyboard-response","640","622574","0.0-4.0-1.228","false"
"1889","ImagesTennis/TR102.5.png","190","test",".","image-keyboard-response","642","624964","0.0-4.0-1.229","true"
"791","ImagesSoccer/VR95.png","188","test",",","image-keyboard-response","644","626259","0.0-4.0-1.230","true"
"1842","ImagesSoccer/VR102.5.png","188","test",".","image-keyboard-response","646","628602","0.0-4.0-1.231","false"
"666","ImagesSoccer/VL110.png","188","test",",","image-keyboard-response","648","629770","0.0-4.0-1.232","true"
"663","ImagesDirect/VR95.png","188","test",",","image-keyboard-response","650","630934","0.0-4.0-1.233","true"
"638","ImagesDirect/VL110.png","188","test",",","image-keyboard-response","652","632074","0.0-4.0-1.234","true"
"708","ImagesDirect/VR102.5.png","190","test",".","image-keyboard-response","654","633285","0.0-4.0-1.235","true"
"2570","ImagesSoccer/VR92.5.png","188","test",",","image-keyboard-response","656","636359","0.0-4.0-1.236","true"
"777","ImagesSoccer/VL107.5.png","188","test",",","image-keyboard-response","658","637638","0.0-4.0-1.237","true"
"1019","ImagesDirect/VL100.png","190","test",".","image-keyboard-response","660","639159","0.0-4.0-1.238","true"
"601","ImagesDirect/VL102.5.png","188","test",",","image-keyboard-response","662","640262","0.0-4.0-1.239","true"
"1014","ImagesDirect/VR107.5.png","190","test",".","image-keyboard-response","664","641778","0.0-4.0-1.240","true"
"798","ImagesTennis/TR95.png","188","test",",","image-keyboard-response","666","643078","0.0-4.0-1.241","true"
"922","ImagesDirect/VR97.5.png","188","test",",","image-keyboard-response","668","644502","0.0-4.0-1.242","true"
"574","ImagesTennis/TR105.png","190","test",".","image-keyboard-response","670","645578","0.0-4.0-1.243","true"
"630","ImagesDirect/VR100.png","188","test",".","image-keyboard-response","672","646710","0.0-4.0-1.244","false"
"667","ImagesDirect/VL107.5.png","188","test",",","image-keyboard-response","674","647878","0.0-4.0-1.245","true"
"1231","ImagesSoccer/VR100.png","188","test",".","image-keyboard-response","676","649611","0.0-4.0-1.246","false"
"905","ImagesDirect/VR110.png","190","test",".","image-keyboard-response","678","651017","0.0-4.0-1.247","true"
"579","ImagesSoccer/VL105.png","188","test",",","image-keyboard-response","680","652098","0.0-4.0-1.248","true"
"906","ImagesSoccer/VL92.5.png","190","test",".","image-keyboard-response","682","653506","0.0-4.0-1.249","true"
"773","ImagesSoccer/VR97.5.png","188","test",",","image-keyboard-response","684","654781","0.0-4.0-1.250","true"
"682","ImagesTennis/TL92.5.png","190","test",".","image-keyboard-response","686","655966","0.0-4.0-1.251","true"
"981","ImagesDirect/VL90.png","190","test",".","image-keyboard-response","688","657449","0.0-4.0-1.252","true"
"657","ImagesTennis/TL95.png","190","test",".","image-keyboard-response","690","658610","0.0-4.0-1.253","true"
"3320","ImagesSoccer/VL100.png","188","test",".","image-keyboard-response","692","662431","0.0-4.0-1.254","false"
"741","ImagesSoccer/VR105.png","190","test",".","image-keyboard-response","694","663673","0.0-4.0-1.255","true"
"3930","ImagesTennis/TL102.5.png","188","test",",","image-keyboard-response","696","668107","0.0-4.0-1.256","true"
"629","ImagesDirect/VL105.png","188","test",",","image-keyboard-response","698","669238","0.0-4.0-1.257","true"
"537","ImagesTennis/TL90.png","190","test",".","image-keyboard-response","700","670278","0.0-4.0-1.258","true"
"875","ImagesTennis/TR92.5.png","188","test",",","image-keyboard-response","702","671654","0.0-4.0-1.259","true"
"1006","ImagesSoccer/VR90.png","188","test",",","image-keyboard-response","704","673162","0.0-4.0-1.260","true"
"634","ImagesTennis/TR107.5.png","190","test",".","image-keyboard-response","706","674298","0.0-4.0-1.261","true"
"2131","ImagesTennis/TL105.png","188","test",",","image-keyboard-response","708","676930","0.0-4.0-1.262","true"
"879","ImagesDirect/VR92.5.png","188","test",",","image-keyboard-response","710","678310","0.0-4.0-1.263","true"
"549","ImagesDirect/VR105.png","190","test",".","image-keyboard-response","712","679362","0.0-4.0-1.264","true"
"878","ImagesTennis/TL110.png","188","test",",","image-keyboard-response","714","680742","0.0-4.0-1.265","true"
"2330","ImagesSoccer/VL97.5.png","188","test",".","image-keyboard-response","716","683574","0.0-4.0-1.266","false"
"4637","ImagesDirect/VL95.png","190","test",".","image-keyboard-response","718","688714","0.0-4.0-1.267","true"
"1592","ImagesTennis/TR100.png","188","test",".","image-keyboard-response","720","690810","0.0-4.0-1.268","false"
"547","ImagesSoccer/VR110.png","190","test",".","image-keyboard-response","722","691858","0.0-4.0-1.269","true"
