"rt","stimulus","key_press","test_part","correct_response","trial_type","trial_index","time_elapsed","internal_node_id","correct"
"23054","ImagesTennis/TR95.png","188","test",",","image-keyboard-response","4","79627","0.0-3.0-1.0","true"
"10062","ImagesTennis/TR105.png","190","test",".","image-keyboard-response","6","90193","0.0-3.0-1.1","true"
"3241","ImagesTennis/TR107.5.png","190","test",".","image-keyboard-response","8","93937","0.0-3.0-1.2","true"
"1911","ImagesTennis/TR100.png","188","test",".","image-keyboard-response","10","96352","0.0-3.0-1.3","false"
"3191","ImagesSoccer/VL107.5.png","188","test",",","image-keyboard-response","12","100047","0.0-3.0-1.4","true"
"3359","ImagesTennis/TR97.5.png","188","test",",","image-keyboard-response","14","103911","0.0-3.0-1.5","true"
"3942","ImagesTennis/TL95.png","190","test",".","image-keyboard-response","16","108358","0.0-3.0-1.6","true"
"4541","ImagesTennis/TR110.png","190","test",".","image-keyboard-response","18","113405","0.0-3.0-1.7","true"
"5423","ImagesDirect/VL102.5.png","188","test",",","image-keyboard-response","20","119334","0.0-3.0-1.8","true"
"1695","ImagesDirect/VL110.png","188","test",",","image-keyboard-response","22","121533","0.0-3.0-1.9","true"
"1215","ImagesDirect/VR105.png","190","test",".","image-keyboard-response","24","123251","0.0-3.0-1.10","true"
"6609","ImagesDirect/VL95.png","190","test",".","image-keyboard-response","26","130364","0.0-3.0-1.11","true"
"2238","ImagesDirect/VR92.5.png","188","test",",","image-keyboard-response","28","133107","0.0-3.0-1.12","true"
"2640","ImagesTennis/TL110.png","188","test",",","image-keyboard-response","30","136250","0.0-3.0-1.13","true"
"3817","ImagesSoccer/VR90.png","188","test",",","image-keyboard-response","32","140571","0.0-3.0-1.14","true"
"7604","ImagesDirect/VL97.5.png","190","test",".","image-keyboard-response","34","148680","0.0-3.0-1.15","true"
"1176","ImagesDirect/VL107.5.png","188","test",",","image-keyboard-response","36","150360","0.0-3.0-1.16","true"
"2808","ImagesTennis/TL107.5.png","188","test",",","image-keyboard-response","38","153672","0.0-3.0-1.17","true"
"1215","ImagesDirect/VR110.png","190","test",".","image-keyboard-response","40","155392","0.0-3.0-1.18","true"
"2343","ImagesDirect/VL90.png","190","test",".","image-keyboard-response","42","158239","0.0-3.0-1.19","true"
"5752","ImagesDirect/VR107.5.png","190","test",".","image-keyboard-response","44","164495","0.0-3.0-1.20","true"
"1159","ImagesSoccer/VR107.5.png","190","test",".","image-keyboard-response","46","166159","0.0-3.0-1.21","true"
"1385","ImagesTennis/TL92.5.png","190","test",".","image-keyboard-response","48","168047","0.0-3.0-1.22","true"
"1879","ImagesTennis/TR90.png","188","test",",","image-keyboard-response","50","170429","0.0-3.0-1.23","true"
"1306","ImagesTennis/TR92.5.png","188","test",",","image-keyboard-response","52","172238","0.0-3.0-1.24","true"
"5208","ImagesDirect/VL100.png","188","test",".","image-keyboard-response","54","177950","0.0-3.0-1.25","false"
"2437","ImagesDirect/VR90.png","188","test",",","image-keyboard-response","56","180892","0.0-3.0-1.26","true"
"1136","ImagesSoccer/VR105.png","190","test",".","image-keyboard-response","58","182532","0.0-3.0-1.27","true"
"1360","ImagesSoccer/VL90.png","190","test",".","image-keyboard-response","60","184396","0.0-3.0-1.28","true"
"2623","ImagesSoccer/VR92.5.png","188","test",",","image-keyboard-response","62","187523","0.0-3.0-1.29","true"
"4089","ImagesSoccer/VR95.png","188","test",",","image-keyboard-response","64","192114","0.0-3.0-1.30","true"
"4103","ImagesSoccer/VR97.5.png","190","test",",","image-keyboard-response","66","196722","0.0-3.0-1.31","false"
"6364","ImagesDirect/VR95.png","190","test",",","image-keyboard-response","68","203593","0.0-3.0-1.32","false"
"2005","ImagesSoccer/VL100.png","190","test",".","image-keyboard-response","70","206104","0.0-3.0-1.33","true"
"1529","ImagesTennis/TL97.5.png","190","test",".","image-keyboard-response","72","208135","0.0-3.0-1.34","true"
"1561","ImagesDirect/VR100.png","190","test",".","image-keyboard-response","74","210200","0.0-3.0-1.35","true"
"1313","ImagesSoccer/VL110.png","188","test",",","image-keyboard-response","76","212015","0.0-3.0-1.36","true"
"1724","ImagesDirect/VL92.5.png","190","test",".","image-keyboard-response","78","214242","0.0-3.0-1.37","true"
"1477","ImagesTennis/TL90.png","190","test",".","image-keyboard-response","80","216223","0.0-3.0-1.38","true"
"3487","ImagesSoccer/VL102.5.png","188","test",",","image-keyboard-response","82","220214","0.0-3.0-1.39","true"
"2182","ImagesSoccer/VR100.png","190","test",".","image-keyboard-response","84","222902","0.0-3.0-1.40","true"
"1192","ImagesSoccer/VR102.5.png","190","test",".","image-keyboard-response","86","224598","0.0-3.0-1.41","true"
"2152","ImagesSoccer/VL92.5.png","190","test",".","image-keyboard-response","88","227254","0.0-3.0-1.42","true"
"2271","ImagesSoccer/VL95.png","190","test",".","image-keyboard-response","90","230029","0.0-3.0-1.43","true"
"3966","ImagesTennis/TL105.png","190","test",",","image-keyboard-response","92","234501","0.0-3.0-1.44","false"
"1335","ImagesSoccer/VR110.png","190","test",".","image-keyboard-response","94","236341","0.0-3.0-1.45","true"
"3798","ImagesSoccer/VL97.5.png","190","test",".","image-keyboard-response","96","240643","0.0-3.0-1.46","true"
"2776","ImagesDirect/VR102.5.png","190","test",".","image-keyboard-response","98","243923","0.0-3.0-1.47","true"
"6856","ImagesTennis/TR102.5.png","188","test",".","image-keyboard-response","100","251283","0.0-3.0-1.48","false"
"4126","ImagesTennis/TL100.png","190","test",".","image-keyboard-response","102","255914","0.0-3.0-1.49","true"
"3440","ImagesSoccer/VL105.png","188","test",",","image-keyboard-response","104","259857","0.0-3.0-1.50","true"
"2384","ImagesTennis/TL102.5.png","190","test",",","image-keyboard-response","106","262745","0.0-3.0-1.51","false"
"1089","ImagesDirect/VL105.png","188","test",",","image-keyboard-response","108","264337","0.0-3.0-1.52","true"
"5493","ImagesDirect/VR97.5.png","188","test",",","image-keyboard-response","110","270336","0.0-3.0-1.53","true"
"847","ImagesTennis/TL95.png","190","test",".","image-keyboard-response","112","271687","0.0-3.0-1.54","true"
"6673","ImagesDirect/VR95.png","190","test",",","image-keyboard-response","114","278864","0.0-3.0-1.55","false"
"1435","ImagesSoccer/VL100.png","190","test",".","image-keyboard-response","116","280806","0.0-3.0-1.56","true"
"2769","ImagesTennis/TL105.png","190","test",",","image-keyboard-response","118","284079","0.0-3.0-1.57","false"
"2077","ImagesTennis/TR105.png","190","test",".","image-keyboard-response","120","286661","0.0-3.0-1.58","true"
"1328","ImagesDirect/VL105.png","188","test",",","image-keyboard-response","122","288493","0.0-3.0-1.59","true"
"1385","ImagesSoccer/VR97.5.png","188","test",",","image-keyboard-response","124","290383","0.0-3.0-1.60","true"
"903","ImagesTennis/TL90.png","190","test",".","image-keyboard-response","126","291789","0.0-3.0-1.61","true"
"785","ImagesDirect/VR107.5.png","190","test",".","image-keyboard-response","128","293077","0.0-3.0-1.62","true"
"1768","ImagesSoccer/VR105.png","190","test",".","image-keyboard-response","130","295349","0.0-3.0-1.63","true"
"951","ImagesDirect/VR105.png","190","test",".","image-keyboard-response","132","296804","0.0-3.0-1.64","true"
"1512","ImagesTennis/TR97.5.png","188","test",",","image-keyboard-response","134","298820","0.0-3.0-1.65","true"
"1170","ImagesTennis/TR95.png","188","test",",","image-keyboard-response","136","300493","0.0-3.0-1.66","true"
"1615","ImagesDirect/VL90.png","190","test",".","image-keyboard-response","138","302613","0.0-3.0-1.67","true"
"1032","ImagesDirect/VL107.5.png","188","test",",","image-keyboard-response","140","304147","0.0-3.0-1.68","true"
"1352","ImagesSoccer/VL102.5.png","188","test",",","image-keyboard-response","142","306003","0.0-3.0-1.69","true"
"800","ImagesTennis/TL100.png","190","test",".","image-keyboard-response","144","307307","0.0-3.0-1.70","true"
"1095","ImagesSoccer/VL105.png","188","test",",","image-keyboard-response","146","308907","0.0-3.0-1.71","true"
"1519","ImagesSoccer/VR100.png","190","test",".","image-keyboard-response","148","310931","0.0-3.0-1.72","true"
"9830","ImagesTennis/TR102.5.png","188","test",".","image-keyboard-response","150","321267","0.0-3.0-1.73","false"
"1359","ImagesSoccer/VR92.5.png","188","test",",","image-keyboard-response","152","323129","0.0-3.0-1.74","true"
"1041","ImagesTennis/TL97.5.png","190","test",".","image-keyboard-response","154","324673","0.0-3.0-1.75","true"
"3935","ImagesSoccer/VR95.png","188","test",",","image-keyboard-response","156","329113","0.0-3.0-1.76","true"
"1439","ImagesTennis/TR92.5.png","188","test",",","image-keyboard-response","158","331056","0.0-3.0-1.77","true"
"880","ImagesDirect/VR102.5.png","190","test",".","image-keyboard-response","160","332441","0.0-3.0-1.78","true"
"2615","ImagesDirect/VL100.png","188","test",".","image-keyboard-response","162","335559","0.0-3.0-1.79","false"
"847","ImagesDirect/VL110.png","188","test",",","image-keyboard-response","164","336911","0.0-3.0-1.80","true"
"711","ImagesSoccer/VL92.5.png","190","test",".","image-keyboard-response","166","338127","0.0-3.0-1.81","true"
"1575","ImagesSoccer/VR107.5.png","190","test",".","image-keyboard-response","168","340206","0.0-3.0-1.82","true"
"1746","ImagesDirect/VL97.5.png","188","test",".","image-keyboard-response","170","342456","0.0-3.0-1.83","false"
"1423","ImagesDirect/VL95.png","188","test",".","image-keyboard-response","172","344382","0.0-3.0-1.84","false"
"919","ImagesTennis/TR90.png","188","test",",","image-keyboard-response","174","345806","0.0-3.0-1.85","true"
"1233","ImagesSoccer/VR90.png","188","test",",","image-keyboard-response","176","347541","0.0-3.0-1.86","true"
"1154","ImagesTennis/TL92.5.png","190","test",".","image-keyboard-response","178","349198","0.0-3.0-1.87","true"
"1592","ImagesTennis/TL102.5.png","190","test",",","image-keyboard-response","180","351293","0.0-3.0-1.88","false"
"3577","ImagesDirect/VL102.5.png","188","test",",","image-keyboard-response","182","355374","0.0-3.0-1.89","true"
"959","ImagesSoccer/VL107.5.png","188","test",",","image-keyboard-response","184","356836","0.0-3.0-1.90","true"
"4166","ImagesDirect/VL92.5.png","190","test",".","image-keyboard-response","186","361508","0.0-3.0-1.91","true"
"1104","ImagesSoccer/VL110.png","188","test",",","image-keyboard-response","188","363115","0.0-3.0-1.92","true"
"4962","ImagesDirect/VR97.5.png","190","test",",","image-keyboard-response","190","368580","0.0-3.0-1.93","false"
"1127","ImagesTennis/TL107.5.png","188","test",",","image-keyboard-response","192","370210","0.0-3.0-1.94","true"
"936","ImagesSoccer/VR110.png","190","test",".","image-keyboard-response","194","371651","0.0-3.0-1.95","true"
"784","ImagesSoccer/VL90.png","190","test",".","image-keyboard-response","196","372938","0.0-3.0-1.96","true"
"2055","ImagesSoccer/VL95.png","190","test",".","image-keyboard-response","198","375498","0.0-3.0-1.97","true"
"1074","ImagesSoccer/VL97.5.png","190","test",".","image-keyboard-response","200","377075","0.0-3.0-1.98","true"
"927","ImagesDirect/VR110.png","190","test",".","image-keyboard-response","202","378507","0.0-3.0-1.99","true"
"3511","ImagesTennis/TR107.5.png","190","test",".","image-keyboard-response","204","382521","0.0-3.0-1.100","true"
"1999","ImagesDirect/VR100.png","190","test",".","image-keyboard-response","206","385024","0.0-3.0-1.101","true"
"1888","ImagesDirect/VR92.5.png","188","test",",","image-keyboard-response","208","387416","0.0-3.0-1.102","true"
"1449","ImagesTennis/TR110.png","190","test",".","image-keyboard-response","210","389369","0.0-3.0-1.103","true"
"2013","ImagesTennis/TL110.png","188","test",",","image-keyboard-response","212","391888","0.0-3.0-1.104","true"
"1210","ImagesSoccer/VR102.5.png","190","test",".","image-keyboard-response","214","393601","0.0-3.0-1.105","true"
"1063","ImagesTennis/TR100.png","188","test",".","image-keyboard-response","216","395168","0.0-3.0-1.106","false"
"1560","ImagesDirect/VR90.png","188","test",",","image-keyboard-response","218","397232","0.0-3.0-1.107","true"
"864","ImagesDirect/VR110.png","190","test",".","image-keyboard-response","220","398599","0.0-3.0-1.108","true"
"1015","ImagesTennis/TR100.png","188","test",".","image-keyboard-response","222","400119","0.0-3.0-1.109","false"
"1905","ImagesSoccer/VR92.5.png","188","test",",","image-keyboard-response","224","402527","0.0-3.0-1.110","true"
"1057","ImagesSoccer/VR107.5.png","190","test",".","image-keyboard-response","226","404087","0.0-3.0-1.111","true"
"910","ImagesDirect/VL105.png","188","test",",","image-keyboard-response","228","405502","0.0-3.0-1.112","true"
"736","ImagesTennis/TR92.5.png","188","test",",","image-keyboard-response","230","406742","0.0-3.0-1.113","true"
"3807","ImagesDirect/VR97.5.png","188","test",",","image-keyboard-response","232","411054","0.0-3.0-1.114","true"
"5183","ImagesDirect/VL97.5.png","188","test",".","image-keyboard-response","234","416742","0.0-3.0-1.115","false"
"1140","ImagesTennis/TL100.png","190","test",".","image-keyboard-response","236","418389","0.0-3.0-1.116","true"
"1208","ImagesDirect/VL102.5.png","188","test",",","image-keyboard-response","238","420101","0.0-3.0-1.117","true"
"830","ImagesTennis/TL90.png","190","test",".","image-keyboard-response","240","421435","0.0-3.0-1.118","true"
"1792","ImagesDirect/VL92.5.png","190","test",".","image-keyboard-response","242","423731","0.0-3.0-1.119","true"
"2809","ImagesTennis/TR110.png","190","test",".","image-keyboard-response","244","427043","0.0-3.0-1.120","true"
"2015","ImagesSoccer/VR90.png","188","test",",","image-keyboard-response","246","429563","0.0-3.0-1.121","true"
"968","ImagesTennis/TL110.png","188","test",",","image-keyboard-response","248","431035","0.0-3.0-1.122","true"
"3313","ImagesTennis/TR102.5.png","188","test",".","image-keyboard-response","250","434851","0.0-3.0-1.123","false"
"1232","ImagesDirect/VL90.png","190","test",".","image-keyboard-response","252","436586","0.0-3.0-1.124","true"
"5472","ImagesSoccer/VL100.png","190","test",".","image-keyboard-response","254","442562","0.0-3.0-1.125","true"
"2167","ImagesSoccer/VL97.5.png","190","test",".","image-keyboard-response","256","445233","0.0-3.0-1.126","true"
"1024","ImagesTennis/TL97.5.png","190","test",".","image-keyboard-response","258","446761","0.0-3.0-1.127","true"
"3727","ImagesTennis/TL102.5.png","188","test",",","image-keyboard-response","260","450992","0.0-3.0-1.128","true"
"993","ImagesDirect/VL100.png","188","test",".","image-keyboard-response","262","452488","0.0-3.0-1.129","false"
"1010","ImagesSoccer/VR110.png","190","test",".","image-keyboard-response","264","454002","0.0-3.0-1.130","true"
"1638","ImagesTennis/TL107.5.png","188","test",",","image-keyboard-response","266","456144","0.0-3.0-1.131","true"
"721","ImagesDirect/VL110.png","188","test",",","image-keyboard-response","268","457367","0.0-3.0-1.132","true"
"849","ImagesTennis/TR90.png","188","test",",","image-keyboard-response","270","458719","0.0-3.0-1.133","true"
"968","ImagesTennis/TR95.png","188","test",",","image-keyboard-response","272","460191","0.0-3.0-1.134","true"
"745","ImagesDirect/VR107.5.png","190","test",".","image-keyboard-response","274","461438","0.0-3.0-1.135","true"
"865","ImagesDirect/VR105.png","190","test",".","image-keyboard-response","276","462807","0.0-3.0-1.136","true"
"2463","ImagesSoccer/VR97.5.png","188","test",",","image-keyboard-response","278","465774","0.0-3.0-1.137","true"
"943","ImagesSoccer/VL95.png","190","test",".","image-keyboard-response","280","467221","0.0-3.0-1.138","true"
"1179","ImagesDirect/VR100.png","190","test",".","image-keyboard-response","282","468902","0.0-3.0-1.139","true"
"785","ImagesTennis/TL92.5.png","190","test",".","image-keyboard-response","284","470190","0.0-3.0-1.140","true"
"711","ImagesSoccer/VL107.5.png","188","test",",","image-keyboard-response","286","471405","0.0-3.0-1.141","true"
"766","ImagesSoccer/VL110.png","188","test",",","image-keyboard-response","288","472676","0.0-3.0-1.142","true"
"1882","ImagesTennis/TR107.5.png","190","test",".","image-keyboard-response","290","475061","0.0-3.0-1.143","true"
"944","ImagesDirect/VR102.5.png","190","test",".","image-keyboard-response","292","476510","0.0-3.0-1.144","true"
"2567","ImagesDirect/VR92.5.png","188","test",",","image-keyboard-response","294","479581","0.0-3.0-1.145","true"
"2775","ImagesSoccer/VR100.png","190","test",".","image-keyboard-response","296","482859","0.0-3.0-1.146","true"
"3299","ImagesTennis/TL105.png","188","test",",","image-keyboard-response","298","486663","0.0-3.0-1.147","true"
"762","ImagesTennis/TL95.png","190","test",".","image-keyboard-response","300","487931","0.0-3.0-1.148","true"
"929","ImagesSoccer/VR105.png","190","test",".","image-keyboard-response","302","489364","0.0-3.0-1.149","true"
"1622","ImagesSoccer/VR95.png","188","test",",","image-keyboard-response","304","491491","0.0-3.0-1.150","true"
"9073","ImagesDirect/VL95.png","188","test",".","image-keyboard-response","306","501067","0.0-3.0-1.151","false"
"1317","ImagesSoccer/VL102.5.png","190","test",",","image-keyboard-response","308","502890","0.0-3.0-1.152","false"
"3048","ImagesSoccer/VR102.5.png","190","test",".","image-keyboard-response","310","506441","0.0-3.0-1.153","true"
"1293","ImagesDirect/VR90.png","188","test",",","image-keyboard-response","312","508241","0.0-3.0-1.154","true"
"2192","ImagesTennis/TR105.png","190","test",".","image-keyboard-response","314","510938","0.0-3.0-1.155","true"
"1736","ImagesDirect/VR95.png","190","test",",","image-keyboard-response","316","513177","0.0-3.0-1.156","false"
"735","ImagesSoccer/VL92.5.png","190","test",".","image-keyboard-response","318","514416","0.0-3.0-1.157","true"
"840","ImagesSoccer/VL105.png","188","test",",","image-keyboard-response","320","515761","0.0-3.0-1.158","true"
"648","ImagesDirect/VL107.5.png","188","test",",","image-keyboard-response","322","516913","0.0-3.0-1.159","true"
"727","ImagesTennis/TR97.5.png","188","test",",","image-keyboard-response","324","518144","0.0-3.0-1.160","true"
"671","ImagesSoccer/VL90.png","190","test",".","image-keyboard-response","326","519319","0.0-3.0-1.161","true"
"945","ImagesTennis/TL97.5.png","190","test",".","image-keyboard-response","328","520767","0.0-3.0-1.162","true"
"821","ImagesTennis/TR97.5.png","188","test",",","image-keyboard-response","330","522095","0.0-3.0-1.163","true"
"935","ImagesTennis/TR102.5.png","188","test",".","image-keyboard-response","332","523535","0.0-3.0-1.164","false"
"930","ImagesDirect/VR102.5.png","190","test",".","image-keyboard-response","334","524967","0.0-3.0-1.165","true"
"2318","ImagesDirect/VL97.5.png","188","test",".","image-keyboard-response","336","527791","0.0-3.0-1.166","false"
"1847","ImagesSoccer/VR102.5.png","190","test",".","image-keyboard-response","338","530142","0.0-3.0-1.167","true"
"946","ImagesSoccer/VR107.5.png","190","test",".","image-keyboard-response","340","531591","0.0-3.0-1.168","true"
"950","ImagesSoccer/VL107.5.png","188","test",",","image-keyboard-response","342","533046","0.0-3.0-1.169","true"
"873","ImagesTennis/TL90.png","190","test",".","image-keyboard-response","344","534422","0.0-3.0-1.170","true"
"647","ImagesDirect/VR110.png","190","test",".","image-keyboard-response","346","535573","0.0-3.0-1.171","true"
"7831","ImagesSoccer/VR100.png","190","test",".","image-keyboard-response","348","543909","0.0-3.0-1.172","true"
"1023","ImagesSoccer/VL90.png","190","test",".","image-keyboard-response","350","545437","0.0-3.0-1.173","true"
"735","ImagesSoccer/VL95.png","190","test",".","image-keyboard-response","352","546678","0.0-3.0-1.174","true"
"998","ImagesDirect/VR90.png","188","test",",","image-keyboard-response","354","548180","0.0-3.0-1.175","true"
"1470","ImagesDirect/VR95.png","188","test",",","image-keyboard-response","356","550155","0.0-3.0-1.176","true"
"1351","ImagesDirect/VL90.png","190","test",".","image-keyboard-response","358","552011","0.0-3.0-1.177","true"
"1336","ImagesTennis/TR100.png","188","test",".","image-keyboard-response","360","553850","0.0-3.0-1.178","false"
"664","ImagesTennis/TL92.5.png","190","test",".","image-keyboard-response","362","555018","0.0-3.0-1.179","true"
"779","ImagesDirect/VL107.5.png","188","test",",","image-keyboard-response","364","556299","0.0-3.0-1.180","true"
"741","ImagesSoccer/VL102.5.png","188","test",",","image-keyboard-response","366","557546","0.0-3.0-1.181","true"
"927","ImagesDirect/VR105.png","190","test",".","image-keyboard-response","368","558978","0.0-3.0-1.182","true"
"1057","ImagesDirect/VR97.5.png","190","test",",","image-keyboard-response","370","560539","0.0-3.0-1.183","false"
"662","ImagesTennis/TR92.5.png","188","test",",","image-keyboard-response","372","561705","0.0-3.0-1.184","true"
"663","ImagesDirect/VL110.png","188","test",",","image-keyboard-response","374","562873","0.0-3.0-1.185","true"
"985","ImagesSoccer/VR90.png","188","test",",","image-keyboard-response","376","564361","0.0-3.0-1.186","true"
"1000","ImagesSoccer/VL92.5.png","190","test",".","image-keyboard-response","378","565864","0.0-3.0-1.187","true"
"1385","ImagesTennis/TR107.5.png","190","test",".","image-keyboard-response","380","567754","0.0-3.0-1.188","true"
"846","ImagesSoccer/VL110.png","188","test",",","image-keyboard-response","382","569105","0.0-3.0-1.189","true"
"1822","ImagesTennis/TR105.png","190","test",".","image-keyboard-response","384","571433","0.0-3.0-1.190","true"
"1439","ImagesTennis/TL107.5.png","188","test",",","image-keyboard-response","386","573375","0.0-3.0-1.191","true"
"3576","ImagesTennis/TL105.png","188","test",",","image-keyboard-response","388","577456","0.0-3.0-1.192","true"
"3302","ImagesSoccer/VR95.png","190","test",",","image-keyboard-response","390","581263","0.0-3.0-1.193","false"
"1279","ImagesSoccer/VL105.png","188","test",",","image-keyboard-response","392","583046","0.0-3.0-1.194","true"
"1183","ImagesTennis/TL110.png","188","test",",","image-keyboard-response","394","584734","0.0-3.0-1.195","true"
"960","ImagesDirect/VL105.png","188","test",",","image-keyboard-response","396","586198","0.0-3.0-1.196","true"
"2455","ImagesDirect/VR92.5.png","190","test",",","image-keyboard-response","398","589157","0.0-3.0-1.197","false"
"2378","ImagesSoccer/VR105.png","190","test",".","image-keyboard-response","400","592039","0.0-3.0-1.198","true"
"1189","ImagesTennis/TL100.png","190","test",".","image-keyboard-response","402","593732","0.0-3.0-1.199","true"
"1559","ImagesSoccer/VL100.png","188","test",".","image-keyboard-response","404","595797","0.0-3.0-1.200","false"
"1344","ImagesDirect/VR100.png","190","test",".","image-keyboard-response","406","597644","0.0-3.0-1.201","true"
"1082","ImagesSoccer/VL97.5.png","190","test",".","image-keyboard-response","408","599229","0.0-3.0-1.202","true"
"879","ImagesDirect/VR107.5.png","190","test",".","image-keyboard-response","410","600611","0.0-3.0-1.203","true"
"793","ImagesTennis/TR90.png","188","test",",","image-keyboard-response","412","601908","0.0-3.0-1.204","true"
"1770","ImagesDirect/VL92.5.png","190","test",".","image-keyboard-response","414","604181","0.0-3.0-1.205","true"
"685","ImagesTennis/TR95.png","188","test",",","image-keyboard-response","416","605372","0.0-3.0-1.206","true"
"663","ImagesSoccer/VR110.png","190","test",".","image-keyboard-response","418","606540","0.0-3.0-1.207","true"
"1040","ImagesDirect/VL95.png","188","test",".","image-keyboard-response","420","608083","0.0-3.0-1.208","false"
"1409","ImagesDirect/VL100.png","188","test",".","image-keyboard-response","422","609995","0.0-3.0-1.209","false"
"984","ImagesSoccer/VR92.5.png","188","test",",","image-keyboard-response","424","611484","0.0-3.0-1.210","true"
"1437","ImagesTennis/TR110.png","190","test",".","image-keyboard-response","426","613427","0.0-3.0-1.211","true"
"1651","ImagesSoccer/VR97.5.png","188","test",",","image-keyboard-response","428","615580","0.0-3.0-1.212","true"
"1295","ImagesDirect/VL102.5.png","188","test",",","image-keyboard-response","430","617379","0.0-3.0-1.213","true"
"1583","ImagesTennis/TL102.5.png","188","test",",","image-keyboard-response","432","619467","0.0-3.0-1.214","true"
"1126","ImagesTennis/TL95.png","190","test",".","image-keyboard-response","434","621098","0.0-3.0-1.215","true"
"1567","ImagesSoccer/VL95.png","190","test",".","image-keyboard-response","436","623169","0.0-3.0-1.216","true"
"1601","ImagesSoccer/VR97.5.png","188","test",",","image-keyboard-response","438","625274","0.0-3.0-1.217","true"
"1520","ImagesSoccer/VR90.png","188","test",",","image-keyboard-response","440","627298","0.0-3.0-1.218","true"
"1231","ImagesSoccer/VL102.5.png","188","test",",","image-keyboard-response","442","629034","0.0-3.0-1.219","true"
"3048","ImagesTennis/TR102.5.png","190","test",".","image-keyboard-response","444","632584","0.0-3.0-1.220","true"
"3007","ImagesSoccer/VR95.png","188","test",",","image-keyboard-response","446","636096","0.0-3.0-1.221","true"
"913","ImagesTennis/TR95.png","188","test",",","image-keyboard-response","448","637512","0.0-3.0-1.222","true"
"2536","ImagesDirect/VR92.5.png","188","test",",","image-keyboard-response","450","640553","0.0-3.0-1.223","true"
"2582","ImagesDirect/VR90.png","188","test",",","image-keyboard-response","452","643639","0.0-3.0-1.224","true"
"1552","ImagesDirect/VL92.5.png","190","test",".","image-keyboard-response","454","645694","0.0-3.0-1.225","true"
"873","ImagesTennis/TL95.png","190","test",".","image-keyboard-response","456","647071","0.0-3.0-1.226","true"
"1288","ImagesDirect/VR100.png","190","test",".","image-keyboard-response","458","648863","0.0-3.0-1.227","true"
"782","ImagesTennis/TL107.5.png","190","test",",","image-keyboard-response","460","650151","0.0-3.0-1.228","false"
"1727","ImagesSoccer/VL92.5.png","190","test",".","image-keyboard-response","462","652382","0.0-3.0-1.229","true"
"1423","ImagesSoccer/VL100.png","188","test",".","image-keyboard-response","464","654310","0.0-3.0-1.230","false"
"4167","ImagesDirect/VL97.5.png","188","test",".","image-keyboard-response","466","658982","0.0-3.0-1.231","false"
"1204","ImagesTennis/TL100.png","190","test",".","image-keyboard-response","468","660692","0.0-3.0-1.232","true"
"688","ImagesDirect/VL110.png","188","test",",","image-keyboard-response","470","661900","0.0-3.0-1.233","true"
"1241","ImagesTennis/TR107.5.png","188","test",".","image-keyboard-response","472","663644","0.0-3.0-1.234","false"
"1040","ImagesTennis/TL97.5.png","190","test",".","image-keyboard-response","474","665188","0.0-3.0-1.235","true"
"944","ImagesTennis/TR90.png","188","test",",","image-keyboard-response","476","666636","0.0-3.0-1.236","true"
"623","ImagesSoccer/VR110.png","190","test",".","image-keyboard-response","478","667763","0.0-3.0-1.237","true"
"1065","ImagesDirect/VL90.png","190","test",".","image-keyboard-response","480","669331","0.0-3.0-1.238","true"
"737","ImagesDirect/VL107.5.png","188","test",",","image-keyboard-response","482","670572","0.0-3.0-1.239","true"
"886","ImagesSoccer/VL107.5.png","188","test",",","image-keyboard-response","484","671962","0.0-3.0-1.240","true"
"2903","ImagesTennis/TL105.png","188","test",",","image-keyboard-response","486","675371","0.0-3.0-1.241","true"
"1102","ImagesTennis/TR100.png","188","test",".","image-keyboard-response","488","676979","0.0-3.0-1.242","false"
"656","ImagesDirect/VR107.5.png","190","test",".","image-keyboard-response","490","678138","0.0-3.0-1.243","true"
"3231","ImagesDirect/VR95.png","188","test",",","image-keyboard-response","492","681874","0.0-3.0-1.244","true"
"719","ImagesDirect/VL105.png","188","test",",","image-keyboard-response","494","683098","0.0-3.0-1.245","true"
"3271","ImagesSoccer/VL105.png","190","test",",","image-keyboard-response","496","686874","0.0-3.0-1.246","false"
"1055","ImagesSoccer/VR107.5.png","190","test",".","image-keyboard-response","498","688433","0.0-3.0-1.247","true"
"3185","ImagesTennis/TR110.png","190","test",".","image-keyboard-response","500","692121","0.0-3.0-1.248","true"
"726","ImagesTennis/TL92.5.png","190","test",".","image-keyboard-response","502","693351","0.0-3.0-1.249","true"
"945","ImagesTennis/TL110.png","188","test",",","image-keyboard-response","504","694800","0.0-3.0-1.250","true"
"2798","ImagesDirect/VL95.png","190","test",".","image-keyboard-response","506","698103","0.0-3.0-1.251","true"
"656","ImagesTennis/TR97.5.png","188","test",",","image-keyboard-response","508","699262","0.0-3.0-1.252","true"
"1225","ImagesSoccer/VL97.5.png","190","test",".","image-keyboard-response","510","700991","0.0-3.0-1.253","true"
"816","ImagesDirect/VR105.png","190","test",".","image-keyboard-response","512","702311","0.0-3.0-1.254","true"
"5184","ImagesTennis/TL102.5.png","190","test",",","image-keyboard-response","514","707999","0.0-3.0-1.255","false"
"1391","ImagesDirect/VR97.5.png","190","test",",","image-keyboard-response","516","709893","0.0-3.0-1.256","false"
"682","ImagesTennis/TL90.png","190","test",".","image-keyboard-response","518","711078","0.0-3.0-1.257","true"
"1280","ImagesSoccer/VR105.png","190","test",".","image-keyboard-response","520","712862","0.0-3.0-1.258","true"
"1519","ImagesSoccer/VR102.5.png","188","test",".","image-keyboard-response","522","714885","0.0-3.0-1.259","false"
"689","ImagesDirect/VR110.png","190","test",".","image-keyboard-response","524","716077","0.0-3.0-1.260","true"
"1024","ImagesSoccer/VL90.png","190","test",".","image-keyboard-response","526","717606","0.0-3.0-1.261","true"
"2489","ImagesDirect/VL100.png","188","test",".","image-keyboard-response","528","720598","0.0-3.0-1.262","false"
"843","ImagesDirect/VR102.5.png","190","test",".","image-keyboard-response","530","721948","0.0-3.0-1.263","true"
"1347","ImagesSoccer/VL110.png","188","test",",","image-keyboard-response","532","723804","0.0-3.0-1.264","true"
"1135","ImagesDirect/VL102.5.png","188","test",",","image-keyboard-response","534","725443","0.0-3.0-1.265","true"
"1456","ImagesTennis/TR105.png","188","test",".","image-keyboard-response","536","727404","0.0-3.0-1.266","false"
"975","ImagesTennis/TR92.5.png","188","test",",","image-keyboard-response","538","728884","0.0-3.0-1.267","true"
"1136","ImagesSoccer/VR100.png","188","test",".","image-keyboard-response","540","730523","0.0-3.0-1.268","false"
"1212","ImagesSoccer/VR92.5.png","188","test",",","image-keyboard-response","542","732244","0.0-3.0-1.269","true"
"9513","ImagesCoins/10R97.5.png","188","test",",","image-keyboard-response","544","742260","0.0-4.0-1.0","true"
"2987","ImagesCoins/10R110.png","190","test",".","image-keyboard-response","546","745754","0.0-4.0-1.1","true"
"6226","ImagesCoins/10L110.png","188","test",",","image-keyboard-response","548","752482","0.0-4.0-1.2","true"
"1502","ImagesCoins/10L90.png","190","test",".","image-keyboard-response","550","754489","0.0-4.0-1.3","true"
"3192","ImagesCoins/10R100.png","190","test",".","image-keyboard-response","552","758184","0.0-4.0-1.4","true"
"2855","ImagesCoins/10R105.png","190","test",".","image-keyboard-response","554","761543","0.0-4.0-1.5","true"
"5073","ImagesCoins/10L95.png","190","test",".","image-keyboard-response","556","767119","0.0-4.0-1.6","true"
"1477","ImagesCoins/10L92.5.png","190","test",".","image-keyboard-response","558","769102","0.0-4.0-1.7","true"
"2688","ImagesCoins/10L97.5.png","190","test",".","image-keyboard-response","560","772294","0.0-4.0-1.8","true"
"2177","ImagesCoins/10R102.5.png","190","test",".","image-keyboard-response","562","774974","0.0-4.0-1.9","true"
"1550","ImagesCoins/10R95.png","188","test",",","image-keyboard-response","564","777030","0.0-4.0-1.10","true"
"1402","ImagesCoins/10L105.png","188","test",",","image-keyboard-response","566","778934","0.0-4.0-1.11","true"
"1912","ImagesCoins/10R92.5.png","188","test",",","image-keyboard-response","568","781349","0.0-4.0-1.12","true"
"3103","ImagesCoins/10R107.5.png","190","test",".","image-keyboard-response","570","784957","0.0-4.0-1.13","true"
"1278","ImagesCoins/10R90.png","188","test",",","image-keyboard-response","572","786740","0.0-4.0-1.14","true"
"832","ImagesCoins/10L107.5.png","188","test",",","image-keyboard-response","574","788076","0.0-4.0-1.15","true"
"770","ImagesCoins/10L100.png","188","test",".","image-keyboard-response","576","789349","0.0-4.0-1.16","false"
"757","ImagesCoins/10L102.5.png","188","test",",","image-keyboard-response","578","790612","0.0-4.0-1.17","true"
"751","ImagesCoins/10R110.png","190","test",".","image-keyboard-response","580","791866","0.0-4.0-1.18","true"
"879","ImagesCoins/10R107.5.png","190","test",".","image-keyboard-response","582","793250","0.0-4.0-1.19","true"
"6544","ImagesCoins/10R92.5.png","188","test",",","image-keyboard-response","584","800299","0.0-4.0-1.20","true"
"1070","ImagesCoins/10L102.5.png","188","test",",","image-keyboard-response","586","801873","0.0-4.0-1.21","true"
"792","ImagesCoins/10L107.5.png","188","test",",","image-keyboard-response","588","803170","0.0-4.0-1.22","true"
"5024","ImagesCoins/10R97.5.png","190","test",",","image-keyboard-response","590","808697","0.0-4.0-1.23","false"
"4670","ImagesCoins/10L100.png","190","test",".","image-keyboard-response","592","813873","0.0-4.0-1.24","true"
"822","ImagesCoins/10L110.png","188","test",",","image-keyboard-response","594","815200","0.0-4.0-1.25","true"
"1248","ImagesCoins/10R90.png","188","test",",","image-keyboard-response","596","816952","0.0-4.0-1.26","true"
"1511","ImagesCoins/10L95.png","190","test",".","image-keyboard-response","598","818966","0.0-4.0-1.27","true"
"1169","ImagesCoins/10R102.5.png","190","test",".","image-keyboard-response","600","820639","0.0-4.0-1.28","true"
"842","ImagesCoins/10R95.png","188","test",",","image-keyboard-response","602","821991","0.0-4.0-1.29","true"
"1087","ImagesCoins/10L105.png","188","test",",","image-keyboard-response","604","823582","0.0-4.0-1.30","true"
"2224","ImagesCoins/10R100.png","190","test",".","image-keyboard-response","606","826311","0.0-4.0-1.31","true"
"2143","ImagesCoins/10R105.png","190","test",".","image-keyboard-response","608","828958","0.0-4.0-1.32","true"
"3230","ImagesCoins/10L92.5.png","190","test",".","image-keyboard-response","610","832694","0.0-4.0-1.33","true"
"1535","ImagesCoins/10L97.5.png","190","test",".","image-keyboard-response","612","834733","0.0-4.0-1.34","true"
"2574","ImagesCoins/10L90.png","190","test",".","image-keyboard-response","614","837813","0.0-4.0-1.35","true"
"1824","ImagesCoins/10R95.png","188","test",",","image-keyboard-response","616","840141","0.0-4.0-1.36","true"
"10814","ImagesCoins/10L100.png","190","test",".","image-keyboard-response","618","851460","0.0-4.0-1.37","true"
"1631","ImagesCoins/10L105.png","188","test",",","image-keyboard-response","620","853596","0.0-4.0-1.38","true"
"1301","ImagesCoins/10R110.png","190","test",".","image-keyboard-response","622","855403","0.0-4.0-1.39","true"
"946","ImagesCoins/10L110.png","188","test",",","image-keyboard-response","624","856853","0.0-4.0-1.40","true"
"1277","ImagesCoins/10R100.png","190","test",".","image-keyboard-response","626","858635","0.0-4.0-1.41","true"
"1464","ImagesCoins/10L97.5.png","190","test",".","image-keyboard-response","628","860603","0.0-4.0-1.42","true"
"768","ImagesCoins/10R107.5.png","190","test",".","image-keyboard-response","630","861874","0.0-4.0-1.43","true"
"752","ImagesCoins/10L102.5.png","188","test",",","image-keyboard-response","632","863130","0.0-4.0-1.44","true"
"6869","ImagesCoins/10R97.5.png","190","test",",","image-keyboard-response","634","870505","0.0-4.0-1.45","false"
"1154","ImagesCoins/10L92.5.png","190","test",".","image-keyboard-response","636","872161","0.0-4.0-1.46","true"
"8246","ImagesCoins/10L95.png","190","test",".","image-keyboard-response","638","880911","0.0-4.0-1.47","true"
"1744","ImagesCoins/10R102.5.png","190","test",".","image-keyboard-response","640","883160","0.0-4.0-1.48","true"
"1440","ImagesCoins/10L90.png","190","test",".","image-keyboard-response","642","885104","0.0-4.0-1.49","true"
"944","ImagesCoins/10R90.png","188","test",",","image-keyboard-response","644","886551","0.0-4.0-1.50","true"
"1224","ImagesCoins/10R105.png","190","test",".","image-keyboard-response","646","888278","0.0-4.0-1.51","true"
"904","ImagesCoins/10R92.5.png","188","test",",","image-keyboard-response","648","889686","0.0-4.0-1.52","true"
"753","ImagesCoins/10L107.5.png","188","test",",","image-keyboard-response","650","890942","0.0-4.0-1.53","true"
"1864","ImagesCoins/10R107.5.png","190","test",".","image-keyboard-response","652","893311","0.0-4.0-1.54","true"
"793","ImagesCoins/10L105.png","188","test",",","image-keyboard-response","654","894607","0.0-4.0-1.55","true"
"1158","ImagesCoins/10L92.5.png","190","test",".","image-keyboard-response","656","896270","0.0-4.0-1.56","true"
"2096","ImagesCoins/10L90.png","190","test",".","image-keyboard-response","658","898869","0.0-4.0-1.57","true"
"4472","ImagesCoins/10R92.5.png","188","test",",","image-keyboard-response","660","903846","0.0-4.0-1.58","true"
"1349","ImagesCoins/10L102.5.png","188","test",",","image-keyboard-response","662","905700","0.0-4.0-1.59","true"
"4440","ImagesCoins/10R90.png","188","test",",","image-keyboard-response","664","910644","0.0-4.0-1.60","true"
"4702","ImagesCoins/10R97.5.png","190","test",",","image-keyboard-response","666","915851","0.0-4.0-1.61","false"
"1184","ImagesCoins/10R100.png","190","test",".","image-keyboard-response","668","917540","0.0-4.0-1.62","true"
"1399","ImagesCoins/10R95.png","188","test",",","image-keyboard-response","670","919443","0.0-4.0-1.63","true"
"974","ImagesCoins/10L95.png","190","test",".","image-keyboard-response","672","920923","0.0-4.0-1.64","true"
"1136","ImagesCoins/10L97.5.png","188","test",".","image-keyboard-response","674","922563","0.0-4.0-1.65","false"
"759","ImagesCoins/10L107.5.png","188","test",",","image-keyboard-response","676","923826","0.0-4.0-1.66","true"
"936","ImagesCoins/10R110.png","190","test",".","image-keyboard-response","678","925266","0.0-4.0-1.67","true"
"1054","ImagesCoins/10L110.png","188","test",",","image-keyboard-response","680","926826","0.0-4.0-1.68","true"
"705","ImagesCoins/10R105.png","190","test",".","image-keyboard-response","682","928034","0.0-4.0-1.69","true"
"3824","ImagesCoins/10R102.5.png","190","test",".","image-keyboard-response","684","932361","0.0-4.0-1.70","true"
"1448","ImagesCoins/10L100.png","188","test",".","image-keyboard-response","686","934321","0.0-4.0-1.71","false"
"1054","ImagesCoins/10R102.5.png","190","test",".","image-keyboard-response","688","935880","0.0-4.0-1.72","true"
"1426","ImagesCoins/10L97.5.png","188","test",".","image-keyboard-response","690","937817","0.0-4.0-1.73","false"
"1989","ImagesCoins/10R95.png","188","test",",","image-keyboard-response","692","940311","0.0-4.0-1.74","true"
"945","ImagesCoins/10R107.5.png","190","test",".","image-keyboard-response","694","941761","0.0-4.0-1.75","true"
"7887","ImagesCoins/10L100.png","190","test",".","image-keyboard-response","696","950153","0.0-4.0-1.76","true"
"1180","ImagesCoins/10R92.5.png","188","test",",","image-keyboard-response","698","951839","0.0-4.0-1.77","true"
"1328","ImagesCoins/10L102.5.png","188","test",",","image-keyboard-response","700","953671","0.0-4.0-1.78","true"
"878","ImagesCoins/10L90.png","190","test",".","image-keyboard-response","702","955054","0.0-4.0-1.79","true"
"863","ImagesCoins/10L92.5.png","190","test",".","image-keyboard-response","704","956422","0.0-4.0-1.80","true"
"822","ImagesCoins/10R110.png","190","test",".","image-keyboard-response","706","957750","0.0-4.0-1.81","true"
"3192","ImagesCoins/10R100.png","190","test",".","image-keyboard-response","708","961445","0.0-4.0-1.82","true"
"847","ImagesCoins/10L110.png","188","test",",","image-keyboard-response","710","962797","0.0-4.0-1.83","true"
"976","ImagesCoins/10L107.5.png","188","test",",","image-keyboard-response","712","964276","0.0-4.0-1.84","true"
"1169","ImagesCoins/10R97.5.png","190","test",",","image-keyboard-response","714","965949","0.0-4.0-1.85","false"
"1392","ImagesCoins/10R105.png","190","test",".","image-keyboard-response","716","967845","0.0-4.0-1.86","true"
"1757","ImagesCoins/10R90.png","188","test",",","image-keyboard-response","718","970107","0.0-4.0-1.87","true"
"737","ImagesCoins/10L105.png","188","test",",","image-keyboard-response","720","971347","0.0-4.0-1.88","true"
"4449","ImagesCoins/10L95.png","190","test",".","image-keyboard-response","722","976298","0.0-4.0-1.89","true"
