"rt","stimulus","key_press","test_part","correct_response","trial_type","trial_index","time_elapsed","internal_node_id","correct"
"3767","ImagesCoins/10L95.png","190","test",".","image-keyboard-response","4","71104","0.0-3.0-1.0","true"
"3302","ImagesCoins/10L97.5.png","190","test",".","image-keyboard-response","6","74909","0.0-3.0-1.1","true"
"4109","ImagesCoins/10R102.5.png","190","test",".","image-keyboard-response","8","79521","0.0-3.0-1.2","true"
"1138","ImagesCoins/10R105.png","190","test",".","image-keyboard-response","10","81164","0.0-3.0-1.3","true"
"2560","ImagesCoins/10L92.5.png","190","test",".","image-keyboard-response","12","84226","0.0-3.0-1.4","true"
"1564","ImagesCoins/10L90.png","190","test",".","image-keyboard-response","14","86292","0.0-3.0-1.5","true"
"1392","ImagesCoins/10L110.png","188","test",",","image-keyboard-response","16","88187","0.0-3.0-1.6","true"
"2551","ImagesCoins/10L107.5.png","188","test",",","image-keyboard-response","18","91240","0.0-3.0-1.7","true"
"3139","ImagesCoins/10R97.5.png","190","test",",","image-keyboard-response","20","94881","0.0-3.0-1.8","false"
"1962","ImagesCoins/10L105.png","188","test",",","image-keyboard-response","22","97346","0.0-3.0-1.9","true"
"1220","ImagesCoins/10R110.png","190","test",".","image-keyboard-response","24","99068","0.0-3.0-1.10","true"
"1501","ImagesCoins/10R107.5.png","190","test",".","image-keyboard-response","26","101071","0.0-3.0-1.11","true"
"1292","ImagesCoins/10R90.png","188","test",",","image-keyboard-response","28","102866","0.0-3.0-1.12","true"
"1959","ImagesCoins/10L100.png","188","test",".","image-keyboard-response","30","105328","0.0-3.0-1.13","false"
"1566","ImagesCoins/10R95.png","188","test",",","image-keyboard-response","32","107396","0.0-3.0-1.14","true"
"2137","ImagesCoins/10R92.5.png","188","test",",","image-keyboard-response","34","110035","0.0-3.0-1.15","true"
"5205","ImagesCoins/10L102.5.png","188","test",",","image-keyboard-response","36","115744","0.0-3.0-1.16","true"
"7953","ImagesCoins/10R100.png","190","test",".","image-keyboard-response","38","124199","0.0-3.0-1.17","true"
"836","ImagesCoins/10R102.5.png","190","test",".","image-keyboard-response","40","125538","0.0-3.0-1.18","true"
"1694","ImagesCoins/10L100.png","190","test",".","image-keyboard-response","42","127735","0.0-3.0-1.19","true"
"2279","ImagesCoins/10R95.png","188","test",",","image-keyboard-response","44","130517","0.0-3.0-1.20","true"
"1209","ImagesCoins/10R90.png","188","test",",","image-keyboard-response","46","132229","0.0-3.0-1.21","true"
"2215","ImagesCoins/10L102.5.png","188","test",",","image-keyboard-response","48","134948","0.0-3.0-1.22","true"
"757","ImagesCoins/10L90.png","190","test",".","image-keyboard-response","50","136208","0.0-3.0-1.23","true"
"652","ImagesCoins/10L110.png","188","test",",","image-keyboard-response","52","137364","0.0-3.0-1.24","true"
"656","ImagesCoins/10R107.5.png","190","test",".","image-keyboard-response","54","138523","0.0-3.0-1.25","true"
"2106","ImagesCoins/10L107.5.png","188","test",",","image-keyboard-response","56","141133","0.0-3.0-1.26","true"
"3531","ImagesCoins/10R100.png","190","test",".","image-keyboard-response","58","145166","0.0-3.0-1.27","true"
"1633","ImagesCoins/10L97.5.png","190","test",".","image-keyboard-response","60","147303","0.0-3.0-1.28","true"
"817","ImagesCoins/10R105.png","190","test",".","image-keyboard-response","62","148622","0.0-3.0-1.29","true"
"1754","ImagesCoins/10L92.5.png","190","test",".","image-keyboard-response","64","150879","0.0-3.0-1.30","true"
"1028","ImagesCoins/10R92.5.png","188","test",",","image-keyboard-response","66","152409","0.0-3.0-1.31","true"
"734","ImagesCoins/10L95.png","190","test",".","image-keyboard-response","68","153647","0.0-3.0-1.32","true"
"1371","ImagesCoins/10R97.5.png","188","test",",","image-keyboard-response","70","155525","0.0-3.0-1.33","true"
"2449","ImagesCoins/10L105.png","188","test",",","image-keyboard-response","72","158478","0.0-3.0-1.34","true"
"1045","ImagesCoins/10R110.png","190","test",".","image-keyboard-response","74","160026","0.0-3.0-1.35","true"
"2097","ImagesCoins/10L92.5.png","190","test",".","image-keyboard-response","76","162626","0.0-3.0-1.36","true"
"876","ImagesCoins/10R90.png","188","test",",","image-keyboard-response","78","164006","0.0-3.0-1.37","true"
"724","ImagesCoins/10R107.5.png","190","test",".","image-keyboard-response","80","165232","0.0-3.0-1.38","true"
"8540","ImagesCoins/10L97.5.png","188","test",".","image-keyboard-response","82","174274","0.0-3.0-1.39","false"
"1063","ImagesCoins/10L102.5.png","188","test",",","image-keyboard-response","84","175841","0.0-3.0-1.40","true"
"774","ImagesCoins/10L95.png","190","test",".","image-keyboard-response","86","177118","0.0-3.0-1.41","true"
"1263","ImagesCoins/10L90.png","190","test",".","image-keyboard-response","88","178884","0.0-3.0-1.42","true"
"964","ImagesCoins/10R110.png","190","test",".","image-keyboard-response","90","180350","0.0-3.0-1.43","true"
"969","ImagesCoins/10L105.png","188","test",",","image-keyboard-response","92","181822","0.0-3.0-1.44","true"
"1056","ImagesCoins/10L110.png","188","test",",","image-keyboard-response","94","183381","0.0-3.0-1.45","true"
"2484","ImagesCoins/10L100.png","188","test",".","image-keyboard-response","96","186368","0.0-3.0-1.46","false"
"1503","ImagesCoins/10R92.5.png","188","test",",","image-keyboard-response","98","188373","0.0-3.0-1.47","true"
"12735","ImagesCoins/10R97.5.png","188","test",",","image-keyboard-response","100","201611","0.0-3.0-1.48","true"
"2568","ImagesCoins/10R95.png","188","test",",","image-keyboard-response","102","204682","0.0-3.0-1.49","true"
"3230","ImagesCoins/10R100.png","188","test",".","image-keyboard-response","104","208415","0.0-3.0-1.50","false"
"856","ImagesCoins/10R105.png","190","test",".","image-keyboard-response","106","209774","0.0-3.0-1.51","true"
"491","ImagesCoins/10R102.5.png","190","test",".","image-keyboard-response","108","210767","0.0-3.0-1.52","true"
"1020","ImagesCoins/10L107.5.png","188","test",",","image-keyboard-response","110","212290","0.0-3.0-1.53","true"
"990","ImagesCoins/10R107.5.png","190","test",".","image-keyboard-response","112","213782","0.0-3.0-1.54","true"
"2636","ImagesCoins/10L92.5.png","190","test",".","image-keyboard-response","114","216920","0.0-3.0-1.55","true"
"1061","ImagesCoins/10L105.png","188","test",",","image-keyboard-response","116","218484","0.0-3.0-1.56","true"
"1877","ImagesCoins/10L100.png","190","test",".","image-keyboard-response","118","220863","0.0-3.0-1.57","true"
"1557","ImagesCoins/10R102.5.png","190","test",".","image-keyboard-response","120","222923","0.0-3.0-1.58","true"
"978","ImagesCoins/10R92.5.png","188","test",",","image-keyboard-response","122","224404","0.0-3.0-1.59","true"
"2186","ImagesCoins/10R95.png","188","test",",","image-keyboard-response","124","227093","0.0-3.0-1.60","true"
"1195","ImagesCoins/10L95.png","190","test",".","image-keyboard-response","126","228792","0.0-3.0-1.61","true"
"1379","ImagesCoins/10L97.5.png","190","test",".","image-keyboard-response","128","230675","0.0-3.0-1.62","true"
"1094","ImagesCoins/10R105.png","190","test",".","image-keyboard-response","130","232272","0.0-3.0-1.63","true"
"824","ImagesCoins/10R90.png","188","test",",","image-keyboard-response","132","233599","0.0-3.0-1.64","true"
"775","ImagesCoins/10R97.5.png","188","test",",","image-keyboard-response","134","234878","0.0-3.0-1.65","true"
"770","ImagesCoins/10L110.png","188","test",",","image-keyboard-response","136","236151","0.0-3.0-1.66","true"
"907","ImagesCoins/10L107.5.png","188","test",",","image-keyboard-response","138","237562","0.0-3.0-1.67","true"
"765","ImagesCoins/10R110.png","190","test",".","image-keyboard-response","140","238829","0.0-3.0-1.68","true"
"879","ImagesCoins/10R100.png","188","test",".","image-keyboard-response","142","240211","0.0-3.0-1.69","false"
"1454","ImagesCoins/10L90.png","190","test",".","image-keyboard-response","144","242167","0.0-3.0-1.70","true"
"1116","ImagesCoins/10L102.5.png","188","test",",","image-keyboard-response","146","243785","0.0-3.0-1.71","true"
"1913","ImagesCoins/10R97.5.png","190","test",",","image-keyboard-response","148","246200","0.0-3.0-1.72","false"
"940","ImagesCoins/10L92.5.png","190","test",".","image-keyboard-response","150","247642","0.0-3.0-1.73","true"
"595","ImagesCoins/10L100.png","190","test",".","image-keyboard-response","152","248739","0.0-3.0-1.74","true"
"955","ImagesCoins/10R92.5.png","188","test",",","image-keyboard-response","154","250197","0.0-3.0-1.75","true"
"712","ImagesCoins/10L105.png","188","test",",","image-keyboard-response","156","251412","0.0-3.0-1.76","true"
"874","ImagesCoins/10L90.png","190","test",".","image-keyboard-response","158","252788","0.0-3.0-1.77","true"
"838","ImagesCoins/10R90.png","188","test",",","image-keyboard-response","160","254129","0.0-3.0-1.78","true"
"3397","ImagesCoins/10R95.png","188","test",",","image-keyboard-response","162","258031","0.0-3.0-1.79","true"
"696","ImagesCoins/10R110.png","190","test",".","image-keyboard-response","164","259230","0.0-3.0-1.80","true"
"742","ImagesCoins/10L102.5.png","188","test",",","image-keyboard-response","166","260475","0.0-3.0-1.81","true"
"824","ImagesCoins/10R105.png","190","test",".","image-keyboard-response","168","261801","0.0-3.0-1.82","true"
"735","ImagesCoins/10R100.png","190","test",".","image-keyboard-response","170","263039","0.0-3.0-1.83","true"
"751","ImagesCoins/10L107.5.png","188","test",",","image-keyboard-response","172","264293","0.0-3.0-1.84","true"
"507","ImagesCoins/10L110.png","188","test",",","image-keyboard-response","174","265302","0.0-3.0-1.85","true"
"666","ImagesCoins/10L95.png","190","test",".","image-keyboard-response","176","266470","0.0-3.0-1.86","true"
"808","ImagesCoins/10R107.5.png","190","test",".","image-keyboard-response","178","267781","0.0-3.0-1.87","true"
"2989","ImagesCoins/10L97.5.png","190","test",".","image-keyboard-response","180","271273","0.0-3.0-1.88","true"
"1042","ImagesCoins/10R102.5.png","190","test",".","image-keyboard-response","182","272817","0.0-3.0-1.89","true"
"5930","ImagesTennis/TR102.5.png","190","test",".","image-keyboard-response","184","279250","0.0-4.0-1.0","true"
"4567","ImagesTennis/TL102.5.png","190","test",",","image-keyboard-response","186","284320","0.0-4.0-1.1","false"
"1507","ImagesTennis/TR92.5.png","190","test",",","image-keyboard-response","188","286329","0.0-4.0-1.2","false"
"1391","ImagesTennis/TL90.png","190","test",".","image-keyboard-response","190","288223","0.0-4.0-1.3","true"
"1644","ImagesSoccer/VL102.5.png","188","test",",","image-keyboard-response","192","290369","0.0-4.0-1.4","true"
"1932","ImagesSoccer/VR100.png","190","test",".","image-keyboard-response","194","292806","0.0-4.0-1.5","true"
"1806","ImagesSoccer/VL105.png","188","test",",","image-keyboard-response","196","295114","0.0-4.0-1.6","true"
"3505","ImagesDirect/VL95.png","190","test",".","image-keyboard-response","198","299121","0.0-4.0-1.7","true"
"1291","ImagesTennis/TL110.png","188","test",",","image-keyboard-response","200","300916","0.0-4.0-1.8","true"
"1464","ImagesDirect/VR97.5.png","190","test",",","image-keyboard-response","202","302883","0.0-4.0-1.9","false"
"1079","ImagesDirect/VR100.png","190","test",".","image-keyboard-response","204","304465","0.0-4.0-1.10","true"
"1280","ImagesSoccer/VR90.png","188","test",",","image-keyboard-response","206","306247","0.0-4.0-1.11","true"
"3821","ImagesSoccer/VL95.png","188","test",".","image-keyboard-response","208","310570","0.0-4.0-1.12","false"
"884","ImagesSoccer/VL110.png","188","test",",","image-keyboard-response","210","311958","0.0-4.0-1.13","true"
"2629","ImagesSoccer/VL100.png","188","test",".","image-keyboard-response","212","315089","0.0-4.0-1.14","false"
"1738","ImagesDirect/VL90.png","190","test",".","image-keyboard-response","214","317330","0.0-4.0-1.15","true"
"863","ImagesTennis/TL92.5.png","190","test",".","image-keyboard-response","216","318695","0.0-4.0-1.16","true"
"1060","ImagesTennis/TL100.png","190","test",".","image-keyboard-response","218","320259","0.0-4.0-1.17","true"
"936","ImagesDirect/VR110.png","190","test",".","image-keyboard-response","220","321698","0.0-4.0-1.18","true"
"851","ImagesSoccer/VR107.5.png","190","test",".","image-keyboard-response","222","323052","0.0-4.0-1.19","true"
"726","ImagesDirect/VL110.png","188","test",",","image-keyboard-response","224","324280","0.0-4.0-1.20","true"
"789","ImagesSoccer/VL107.5.png","188","test",",","image-keyboard-response","226","325571","0.0-4.0-1.21","true"
"2706","ImagesDirect/VR92.5.png","190","test",",","image-keyboard-response","228","328779","0.0-4.0-1.22","false"
"1143","ImagesDirect/VR95.png","190","test",",","image-keyboard-response","230","330425","0.0-4.0-1.23","false"
"1033","ImagesTennis/TR105.png","190","test",".","image-keyboard-response","232","331960","0.0-4.0-1.24","true"
"905","ImagesTennis/TR100.png","190","test",".","image-keyboard-response","234","333369","0.0-4.0-1.25","true"
"898","ImagesSoccer/VR102.5.png","190","test",".","image-keyboard-response","236","334769","0.0-4.0-1.26","true"
"1130","ImagesDirect/VL102.5.png","188","test",",","image-keyboard-response","238","336401","0.0-4.0-1.27","true"
"1467","ImagesTennis/TL97.5.png","190","test",".","image-keyboard-response","240","338371","0.0-4.0-1.28","true"
"805","ImagesDirect/VR102.5.png","190","test",".","image-keyboard-response","242","339677","0.0-4.0-1.29","true"
"1685","ImagesSoccer/VL97.5.png","188","test",".","image-keyboard-response","244","341865","0.0-4.0-1.30","false"
"1090","ImagesSoccer/VL90.png","190","test",".","image-keyboard-response","246","343458","0.0-4.0-1.31","true"
"2896","ImagesSoccer/VL92.5.png","190","test",".","image-keyboard-response","248","346856","0.0-4.0-1.32","true"
"793","ImagesSoccer/VR110.png","190","test",".","image-keyboard-response","250","348150","0.0-4.0-1.33","true"
"1068","ImagesTennis/TR90.png","188","test",",","image-keyboard-response","252","349722","0.0-4.0-1.34","true"
"1471","ImagesDirect/VL105.png","188","test",",","image-keyboard-response","254","351695","0.0-4.0-1.35","true"
"1828","ImagesTennis/TL105.png","188","test",",","image-keyboard-response","256","354027","0.0-4.0-1.36","true"
"2022","ImagesTennis/TR97.5.png","188","test",",","image-keyboard-response","258","356551","0.0-4.0-1.37","true"
"926","ImagesTennis/TL95.png","190","test",".","image-keyboard-response","260","357980","0.0-4.0-1.38","true"
"1721","ImagesDirect/VR90.png","188","test",",","image-keyboard-response","262","360206","0.0-4.0-1.39","true"
"852","ImagesTennis/TR107.5.png","190","test",".","image-keyboard-response","264","361559","0.0-4.0-1.40","true"
"839","ImagesSoccer/VR105.png","190","test",".","image-keyboard-response","266","362901","0.0-4.0-1.41","true"
"802","ImagesDirect/VL107.5.png","188","test",",","image-keyboard-response","268","364206","0.0-4.0-1.42","true"
"2662","ImagesDirect/VL92.5.png","190","test",".","image-keyboard-response","270","367370","0.0-4.0-1.43","true"
"1154","ImagesTennis/TL107.5.png","188","test",",","image-keyboard-response","272","369027","0.0-4.0-1.44","true"
"922","ImagesTennis/TR110.png","190","test",".","image-keyboard-response","274","370452","0.0-4.0-1.45","true"
"1186","ImagesDirect/VR107.5.png","190","test",".","image-keyboard-response","276","372140","0.0-4.0-1.46","true"
"987","ImagesTennis/TR95.png","188","test",",","image-keyboard-response","278","373630","0.0-4.0-1.47","true"
"1295","ImagesSoccer/VR95.png","190","test",",","image-keyboard-response","280","375427","0.0-4.0-1.48","false"
"2472","ImagesSoccer/VR92.5.png","188","test",",","image-keyboard-response","282","378402","0.0-4.0-1.49","true"
"2903","ImagesDirect/VL100.png","188","test",".","image-keyboard-response","284","381807","0.0-4.0-1.50","false"
"1807","ImagesDirect/VL97.5.png","188","test",".","image-keyboard-response","286","384117","0.0-4.0-1.51","false"
"873","ImagesSoccer/VR97.5.png","190","test",",","image-keyboard-response","288","385492","0.0-4.0-1.52","false"
"1550","ImagesDirect/VR105.png","190","test",".","image-keyboard-response","290","387545","0.0-4.0-1.53","true"
"906","ImagesSoccer/VL102.5.png","188","test",",","image-keyboard-response","292","388953","0.0-4.0-1.54","true"
"819","ImagesSoccer/VR90.png","188","test",",","image-keyboard-response","294","390276","0.0-4.0-1.55","true"
"763","ImagesDirect/VL105.png","188","test",",","image-keyboard-response","296","391542","0.0-4.0-1.56","true"
"627","ImagesSoccer/VL107.5.png","188","test",",","image-keyboard-response","298","392672","0.0-4.0-1.57","true"
"1622","ImagesDirect/VL92.5.png","190","test",".","image-keyboard-response","300","394796","0.0-4.0-1.58","true"
"1019","ImagesTennis/TL110.png","188","test",",","image-keyboard-response","302","396317","0.0-4.0-1.59","true"
"868","ImagesTennis/TL105.png","188","test",",","image-keyboard-response","304","397687","0.0-4.0-1.60","true"
"694","ImagesSoccer/VR97.5.png","190","test",",","image-keyboard-response","306","398884","0.0-4.0-1.61","false"
"575","ImagesSoccer/VR105.png","190","test",".","image-keyboard-response","308","399962","0.0-4.0-1.62","true"
"870","ImagesSoccer/VL105.png","188","test",",","image-keyboard-response","310","401336","0.0-4.0-1.63","true"
"543","ImagesTennis/TR110.png","190","test",".","image-keyboard-response","312","402382","0.0-4.0-1.64","true"
"1281","ImagesDirect/VL90.png","190","test",".","image-keyboard-response","314","404167","0.0-4.0-1.65","true"
"4924","ImagesDirect/VR90.png","188","test",",","image-keyboard-response","316","409594","0.0-4.0-1.66","true"
"722","ImagesDirect/VR105.png","190","test",".","image-keyboard-response","318","410818","0.0-4.0-1.67","true"
"1524","ImagesTennis/TL100.png","190","test",".","image-keyboard-response","320","412845","0.0-4.0-1.68","true"
"1353","ImagesTennis/TL90.png","190","test",".","image-keyboard-response","322","414700","0.0-4.0-1.69","true"
"884","ImagesSoccer/VL92.5.png","190","test",".","image-keyboard-response","324","416086","0.0-4.0-1.70","true"
"819","ImagesTennis/TL92.5.png","190","test",".","image-keyboard-response","326","417408","0.0-4.0-1.71","true"
"2082","ImagesSoccer/VL95.png","190","test",".","image-keyboard-response","328","419992","0.0-4.0-1.72","true"
"1074","ImagesDirect/VR97.5.png","190","test",",","image-keyboard-response","330","421570","0.0-4.0-1.73","false"
"1292","ImagesTennis/TR95.png","188","test",",","image-keyboard-response","332","423364","0.0-4.0-1.74","true"
"717","ImagesDirect/VR102.5.png","190","test",".","image-keyboard-response","334","424583","0.0-4.0-1.75","true"
"728","ImagesDirect/VL95.png","188","test",".","image-keyboard-response","336","425813","0.0-4.0-1.76","false"
"1031","ImagesSoccer/VL90.png","190","test",".","image-keyboard-response","338","427347","0.0-4.0-1.77","true"
"696","ImagesSoccer/VL97.5.png","188","test",".","image-keyboard-response","340","428547","0.0-4.0-1.78","false"
"715","ImagesDirect/VL107.5.png","188","test",",","image-keyboard-response","342","429765","0.0-4.0-1.79","true"
"609","ImagesDirect/VR110.png","190","test",".","image-keyboard-response","344","430878","0.0-4.0-1.80","true"
"555","ImagesSoccer/VL100.png","188","test",".","image-keyboard-response","346","431937","0.0-4.0-1.81","false"
"1621","ImagesTennis/TL97.5.png","190","test",".","image-keyboard-response","348","434060","0.0-4.0-1.82","true"
"858","ImagesTennis/TR90.png","188","test",",","image-keyboard-response","350","435421","0.0-4.0-1.83","true"
"772","ImagesTennis/TR102.5.png","188","test",".","image-keyboard-response","352","436696","0.0-4.0-1.84","false"
"770","ImagesTennis/TL95.png","190","test",".","image-keyboard-response","354","437968","0.0-4.0-1.85","true"
"622","ImagesTennis/TR92.5.png","188","test",",","image-keyboard-response","356","439093","0.0-4.0-1.86","true"
"1238","ImagesDirect/VL100.png","188","test",".","image-keyboard-response","358","440834","0.0-4.0-1.87","false"
"838","ImagesTennis/TR97.5.png","188","test",",","image-keyboard-response","360","442175","0.0-4.0-1.88","true"
"2475","ImagesSoccer/VR95.png","190","test",",","image-keyboard-response","362","445154","0.0-4.0-1.89","false"
"2133","ImagesTennis/TL107.5.png","188","test",",","image-keyboard-response","364","447789","0.0-4.0-1.90","true"
"839","ImagesDirect/VL110.png","188","test",",","image-keyboard-response","366","449132","0.0-4.0-1.91","true"
"574","ImagesSoccer/VR102.5.png","190","test",".","image-keyboard-response","368","450209","0.0-4.0-1.92","true"
"622","ImagesSoccer/VR110.png","190","test",".","image-keyboard-response","370","451334","0.0-4.0-1.93","true"
"4290","ImagesDirect/VR95.png","190","test",",","image-keyboard-response","372","456126","0.0-4.0-1.94","false"
"1447","ImagesTennis/TR100.png","188","test",".","image-keyboard-response","374","458077","0.0-4.0-1.95","false"
"597","ImagesDirect/VR107.5.png","188","test",".","image-keyboard-response","376","459176","0.0-4.0-1.96","false"
"2311","ImagesTennis/TR105.png","190","test",".","image-keyboard-response","378","461989","0.0-4.0-1.97","true"
"540","ImagesSoccer/VR107.5.png","190","test",".","image-keyboard-response","380","463032","0.0-4.0-1.98","true"
"1510","ImagesDirect/VL102.5.png","188","test",",","image-keyboard-response","382","465045","0.0-4.0-1.99","true"
"710","ImagesSoccer/VR92.5.png","190","test",",","image-keyboard-response","384","466258","0.0-4.0-1.100","false"
"1472","ImagesDirect/VR92.5.png","188","test",",","image-keyboard-response","386","468234","0.0-4.0-1.101","true"
"679","ImagesDirect/VL97.5.png","188","test",".","image-keyboard-response","388","469416","0.0-4.0-1.102","false"
"4029","ImagesTennis/TL102.5.png","188","test",",","image-keyboard-response","390","473947","0.0-4.0-1.103","true"
"696","ImagesSoccer/VR100.png","190","test",".","image-keyboard-response","392","475147","0.0-4.0-1.104","true"
"768","ImagesTennis/TR107.5.png","190","test",".","image-keyboard-response","394","476416","0.0-4.0-1.105","true"
"571","ImagesSoccer/VL110.png","188","test",",","image-keyboard-response","396","477491","0.0-4.0-1.106","true"
"1737","ImagesDirect/VR100.png","188","test",".","image-keyboard-response","398","479731","0.0-4.0-1.107","false"
"1191","ImagesSoccer/VL90.png","190","test",".","image-keyboard-response","400","481425","0.0-4.0-1.108","true"
"1011","ImagesDirect/VR110.png","190","test",".","image-keyboard-response","402","482939","0.0-4.0-1.109","true"
"13889","ImagesDirect/VR90.png","188","test",",","image-keyboard-response","404","497330","0.0-4.0-1.110","true"
"6234","ImagesDirect/VL95.png","188","test",".","image-keyboard-response","406","504067","0.0-4.0-1.111","false"
"1359","ImagesTennis/TL92.5.png","190","test",".","image-keyboard-response","408","505929","0.0-4.0-1.112","true"
"857","ImagesDirect/VR100.png","190","test",".","image-keyboard-response","410","507289","0.0-4.0-1.113","true"
"1077","ImagesSoccer/VL95.png","190","test",".","image-keyboard-response","412","508869","0.0-4.0-1.114","true"
"876","ImagesTennis/TL97.5.png","190","test",".","image-keyboard-response","414","510247","0.0-4.0-1.115","true"
"659","ImagesSoccer/VL92.5.png","190","test",".","image-keyboard-response","416","511409","0.0-4.0-1.116","true"
"764","ImagesDirect/VR105.png","190","test",".","image-keyboard-response","418","512676","0.0-4.0-1.117","true"
"596","ImagesDirect/VL105.png","188","test",",","image-keyboard-response","420","513774","0.0-4.0-1.118","true"
"1206","ImagesTennis/TL107.5.png","188","test",",","image-keyboard-response","422","515483","0.0-4.0-1.119","true"
"649","ImagesTennis/TL90.png","190","test",".","image-keyboard-response","424","516636","0.0-4.0-1.120","true"
"586","ImagesTennis/TL95.png","190","test",".","image-keyboard-response","426","517725","0.0-4.0-1.121","true"
"682","ImagesTennis/TL105.png","188","test",",","image-keyboard-response","428","518910","0.0-4.0-1.122","true"
"768","ImagesTennis/TL102.5.png","188","test",",","image-keyboard-response","430","520181","0.0-4.0-1.123","true"
"1373","ImagesTennis/TR100.png","188","test",".","image-keyboard-response","432","522057","0.0-4.0-1.124","false"
"773","ImagesSoccer/VR105.png","190","test",".","image-keyboard-response","434","523332","0.0-4.0-1.125","true"
"921","ImagesTennis/TR105.png","190","test",".","image-keyboard-response","436","524757","0.0-4.0-1.126","true"
"966","ImagesTennis/TL100.png","188","test",".","image-keyboard-response","438","526226","0.0-4.0-1.127","false"
"939","ImagesDirect/VL100.png","188","test",".","image-keyboard-response","440","527668","0.0-4.0-1.128","false"
"769","ImagesDirect/VR107.5.png","190","test",".","image-keyboard-response","442","528942","0.0-4.0-1.129","true"
"2557","ImagesDirect/VR92.5.png","188","test",",","image-keyboard-response","444","532002","0.0-4.0-1.130","true"
"2049","ImagesDirect/VL92.5.png","190","test",".","image-keyboard-response","446","534554","0.0-4.0-1.131","true"
"2165","ImagesSoccer/VR95.png","188","test",",","image-keyboard-response","448","537222","0.0-4.0-1.132","true"
"577","ImagesDirect/VL107.5.png","188","test",",","image-keyboard-response","450","538302","0.0-4.0-1.133","true"
"1461","ImagesSoccer/VR90.png","188","test",",","image-keyboard-response","452","540267","0.0-4.0-1.134","true"
"558","ImagesTennis/TR97.5.png","188","test",",","image-keyboard-response","454","541327","0.0-4.0-1.135","true"
"645","ImagesSoccer/VL102.5.png","188","test",",","image-keyboard-response","456","542475","0.0-4.0-1.136","true"
"603","ImagesSoccer/VL105.png","188","test",",","image-keyboard-response","458","543582","0.0-4.0-1.137","true"
"903","ImagesTennis/TR107.5.png","190","test",".","image-keyboard-response","460","544987","0.0-4.0-1.138","true"
"2151","ImagesSoccer/VR97.5.png","190","test",",","image-keyboard-response","462","547641","0.0-4.0-1.139","false"
"677","ImagesDirect/VR102.5.png","190","test",".","image-keyboard-response","464","548820","0.0-4.0-1.140","true"
"2974","ImagesSoccer/VL97.5.png","190","test",".","image-keyboard-response","466","552297","0.0-4.0-1.141","true"
"724","ImagesDirect/VL110.png","188","test",",","image-keyboard-response","468","553525","0.0-4.0-1.142","true"
"2747","ImagesTennis/TR92.5.png","188","test",",","image-keyboard-response","470","556775","0.0-4.0-1.143","true"
"1601","ImagesTennis/TR95.png","188","test",",","image-keyboard-response","472","558880","0.0-4.0-1.144","true"
"1486","ImagesDirect/VL102.5.png","188","test",",","image-keyboard-response","474","560868","0.0-4.0-1.145","true"
"1560","ImagesDirect/VR97.5.png","190","test",",","image-keyboard-response","476","562931","0.0-4.0-1.146","false"
"917","ImagesSoccer/VR107.5.png","190","test",".","image-keyboard-response","478","564351","0.0-4.0-1.147","true"
"662","ImagesTennis/TL110.png","188","test",",","image-keyboard-response","480","565516","0.0-4.0-1.148","true"
"2690","ImagesDirect/VL90.png","190","test",".","image-keyboard-response","482","568710","0.0-4.0-1.149","true"
"611","ImagesSoccer/VL100.png","188","test",".","image-keyboard-response","484","569825","0.0-4.0-1.150","false"
"1631","ImagesDirect/VL97.5.png","188","test",".","image-keyboard-response","486","571959","0.0-4.0-1.151","false"
"703","ImagesTennis/TR110.png","188","test",".","image-keyboard-response","488","573165","0.0-4.0-1.152","false"
"5896","ImagesDirect/VR95.png","188","test",",","image-keyboard-response","490","579564","0.0-4.0-1.153","true"
"535","ImagesSoccer/VL110.png","188","test",",","image-keyboard-response","492","580601","0.0-4.0-1.154","true"
"752","ImagesSoccer/VR110.png","190","test",".","image-keyboard-response","494","581857","0.0-4.0-1.155","true"
"729","ImagesSoccer/VL107.5.png","188","test",",","image-keyboard-response","496","583088","0.0-4.0-1.156","true"
"794","ImagesSoccer/VR102.5.png","190","test",".","image-keyboard-response","498","584384","0.0-4.0-1.157","true"
"922","ImagesSoccer/VR100.png","190","test",".","image-keyboard-response","500","585808","0.0-4.0-1.158","true"
"2777","ImagesSoccer/VR92.5.png","188","test",",","image-keyboard-response","502","589089","0.0-4.0-1.159","true"
"1119","ImagesTennis/TR102.5.png","190","test",".","image-keyboard-response","504","590711","0.0-4.0-1.160","true"
"714","ImagesTennis/TR90.png","188","test",",","image-keyboard-response","506","591927","0.0-4.0-1.161","true"
"763","ImagesTennis/TL92.5.png","190","test",".","image-keyboard-response","508","593193","0.0-4.0-1.162","true"
"1418","ImagesSoccer/VL90.png","190","test",".","image-keyboard-response","510","595113","0.0-4.0-1.163","true"
"754","ImagesDirect/VR97.5.png","190","test",",","image-keyboard-response","512","596369","0.0-4.0-1.164","false"
"823","ImagesSoccer/VL97.5.png","188","test",".","image-keyboard-response","514","597695","0.0-4.0-1.165","false"
"2552","ImagesTennis/TR95.png","188","test",",","image-keyboard-response","516","600750","0.0-4.0-1.166","true"
"618","ImagesTennis/TL105.png","188","test",",","image-keyboard-response","518","601871","0.0-4.0-1.167","true"
"610","ImagesTennis/TR110.png","190","test",".","image-keyboard-response","520","602984","0.0-4.0-1.168","true"
"650","ImagesTennis/TL107.5.png","188","test",",","image-keyboard-response","522","604137","0.0-4.0-1.169","true"
"977","ImagesTennis/TR90.png","188","test",",","image-keyboard-response","524","605618","0.0-4.0-1.170","true"
"626","ImagesSoccer/VR97.5.png","190","test",",","image-keyboard-response","526","606747","0.0-4.0-1.171","false"
"625","ImagesDirect/VL102.5.png","188","test",",","image-keyboard-response","528","607875","0.0-4.0-1.172","true"
"547","ImagesDirect/VL105.png","188","test",",","image-keyboard-response","530","608924","0.0-4.0-1.173","true"
"552","ImagesDirect/VL110.png","188","test",",","image-keyboard-response","532","609979","0.0-4.0-1.174","true"
"547","ImagesDirect/VR110.png","190","test",".","image-keyboard-response","534","611028","0.0-4.0-1.175","true"
"618","ImagesTennis/TR107.5.png","190","test",".","image-keyboard-response","536","612149","0.0-4.0-1.176","true"
"2063","ImagesDirect/VL92.5.png","188","test",".","image-keyboard-response","538","614716","0.0-4.0-1.177","false"
"490","ImagesSoccer/VR110.png","190","test",".","image-keyboard-response","540","615707","0.0-4.0-1.178","true"
"1013","ImagesTennis/TL95.png","190","test",".","image-keyboard-response","542","617222","0.0-4.0-1.179","true"
"580","ImagesSoccer/VR107.5.png","190","test",".","image-keyboard-response","544","618304","0.0-4.0-1.180","true"
"713","ImagesSoccer/VR95.png","188","test",",","image-keyboard-response","546","619520","0.0-4.0-1.181","true"
"968","ImagesDirect/VL95.png","190","test",".","image-keyboard-response","548","620991","0.0-4.0-1.182","true"
"593","ImagesSoccer/VL102.5.png","188","test",",","image-keyboard-response","550","622086","0.0-4.0-1.183","true"
"1091","ImagesTennis/TR92.5.png","188","test",",","image-keyboard-response","552","623679","0.0-4.0-1.184","true"
"2356","ImagesTennis/TL97.5.png","188","test",".","image-keyboard-response","554","626537","0.0-4.0-1.185","false"
"852","ImagesTennis/TR97.5.png","188","test",",","image-keyboard-response","556","627892","0.0-4.0-1.186","true"
"578","ImagesDirect/VL100.png","188","test",".","image-keyboard-response","558","628973","0.0-4.0-1.187","false"
"2119","ImagesTennis/TL100.png","190","test",".","image-keyboard-response","560","631597","0.0-4.0-1.188","true"
"754","ImagesTennis/TL102.5.png","188","test",",","image-keyboard-response","562","632853","0.0-4.0-1.189","true"
"777","ImagesSoccer/VR100.png","190","test",".","image-keyboard-response","564","634133","0.0-4.0-1.190","true"
"1049","ImagesDirect/VR90.png","188","test",",","image-keyboard-response","566","635684","0.0-4.0-1.191","true"
"751","ImagesDirect/VR100.png","190","test",".","image-keyboard-response","568","636938","0.0-4.0-1.192","true"
"645","ImagesTennis/TL90.png","190","test",".","image-keyboard-response","570","638088","0.0-4.0-1.193","true"
"2525","ImagesDirect/VL90.png","190","test",".","image-keyboard-response","572","641115","0.0-4.0-1.194","true"
"553","ImagesTennis/TL110.png","188","test",",","image-keyboard-response","574","642172","0.0-4.0-1.195","true"
"710","ImagesDirect/VR107.5.png","190","test",".","image-keyboard-response","576","643384","0.0-4.0-1.196","true"
"1158","ImagesDirect/VR92.5.png","188","test",",","image-keyboard-response","578","645045","0.0-4.0-1.197","true"
"582","ImagesSoccer/VL107.5.png","188","test",",","image-keyboard-response","580","646130","0.0-4.0-1.198","true"
"1318","ImagesSoccer/VL100.png","188","test",".","image-keyboard-response","582","647953","0.0-4.0-1.199","false"
"1206","ImagesSoccer/VL92.5.png","190","test",".","image-keyboard-response","584","649661","0.0-4.0-1.200","true"
"1690","ImagesSoccer/VL95.png","188","test",".","image-keyboard-response","586","651854","0.0-4.0-1.201","false"
"1313","ImagesDirect/VR95.png","190","test",",","image-keyboard-response","588","653670","0.0-4.0-1.202","false"
"968","ImagesSoccer/VR105.png","190","test",".","image-keyboard-response","590","655141","0.0-4.0-1.203","true"
"560","ImagesSoccer/VR102.5.png","190","test",".","image-keyboard-response","592","656204","0.0-4.0-1.204","true"
"690","ImagesDirect/VR102.5.png","190","test",".","image-keyboard-response","594","657396","0.0-4.0-1.205","true"
"496","ImagesSoccer/VL110.png","188","test",",","image-keyboard-response","596","658395","0.0-4.0-1.206","true"
"450","ImagesDirect/VL107.5.png","188","test",",","image-keyboard-response","598","659348","0.0-4.0-1.207","true"
"1159","ImagesSoccer/VR90.png","188","test",",","image-keyboard-response","600","661010","0.0-4.0-1.208","true"
"667","ImagesTennis/TR105.png","190","test",".","image-keyboard-response","602","662181","0.0-4.0-1.209","true"
"582","ImagesTennis/TR100.png","190","test",".","image-keyboard-response","604","663267","0.0-4.0-1.210","true"
"1011","ImagesDirect/VL97.5.png","188","test",".","image-keyboard-response","606","664781","0.0-4.0-1.211","false"
"839","ImagesTennis/TR102.5.png","190","test",".","image-keyboard-response","608","666124","0.0-4.0-1.212","true"
"644","ImagesSoccer/VL105.png","188","test",",","image-keyboard-response","610","667271","0.0-4.0-1.213","true"
"597","ImagesDirect/VR105.png","190","test",".","image-keyboard-response","612","668370","0.0-4.0-1.214","true"
"533","ImagesSoccer/VR92.5.png","190","test",",","image-keyboard-response","614","669407","0.0-4.0-1.215","false"
"1449","ImagesDirect/VR97.5.png","190","test",",","image-keyboard-response","616","671360","0.0-4.0-1.216","false"
"806","ImagesDirect/VL97.5.png","188","test",".","image-keyboard-response","618","672668","0.0-4.0-1.217","false"
"1890","ImagesTennis/TR92.5.png","188","test",",","image-keyboard-response","620","675062","0.0-4.0-1.218","true"
"692","ImagesTennis/TL110.png","188","test",",","image-keyboard-response","622","676257","0.0-4.0-1.219","true"
"1625","ImagesDirect/VR90.png","188","test",",","image-keyboard-response","624","678385","0.0-4.0-1.220","true"
"856","ImagesSoccer/VR102.5.png","190","test",".","image-keyboard-response","626","679743","0.0-4.0-1.221","true"
"1562","ImagesDirect/VR102.5.png","188","test",".","image-keyboard-response","628","681807","0.0-4.0-1.222","false"
"737","ImagesSoccer/VR110.png","190","test",".","image-keyboard-response","630","683047","0.0-4.0-1.223","true"
"581","ImagesDirect/VR110.png","190","test",".","image-keyboard-response","632","684132","0.0-4.0-1.224","true"
"721","ImagesTennis/TL105.png","188","test",",","image-keyboard-response","634","685356","0.0-4.0-1.225","true"
"1054","ImagesTennis/TR105.png","190","test",".","image-keyboard-response","636","686912","0.0-4.0-1.226","true"
"878","ImagesTennis/TL90.png","190","test",".","image-keyboard-response","638","688293","0.0-4.0-1.227","true"
"1068","ImagesSoccer/VR105.png","190","test",".","image-keyboard-response","640","689864","0.0-4.0-1.228","true"
"810","ImagesTennis/TL92.5.png","190","test",".","image-keyboard-response","642","691177","0.0-4.0-1.229","true"
"525","ImagesSoccer/VR100.png","190","test",".","image-keyboard-response","644","692206","0.0-4.0-1.230","true"
"758","ImagesTennis/TR90.png","188","test",",","image-keyboard-response","646","693467","0.0-4.0-1.231","true"
"559","ImagesDirect/VL105.png","188","test",",","image-keyboard-response","648","694528","0.0-4.0-1.232","true"
"479","ImagesSoccer/VR107.5.png","190","test",".","image-keyboard-response","650","695510","0.0-4.0-1.233","true"
"771","ImagesSoccer/VL92.5.png","190","test",".","image-keyboard-response","652","696784","0.0-4.0-1.234","true"
"676","ImagesSoccer/VL102.5.png","188","test",",","image-keyboard-response","654","697964","0.0-4.0-1.235","true"
"774","ImagesTennis/TR110.png","190","test",".","image-keyboard-response","656","699242","0.0-4.0-1.236","true"
"775","ImagesSoccer/VL90.png","190","test",".","image-keyboard-response","658","700519","0.0-4.0-1.237","true"
"1043","ImagesTennis/TL100.png","188","test",".","image-keyboard-response","660","702065","0.0-4.0-1.238","false"
"2401","ImagesSoccer/VR92.5.png","190","test",",","image-keyboard-response","662","704969","0.0-4.0-1.239","false"
"718","ImagesDirect/VL107.5.png","188","test",",","image-keyboard-response","664","706190","0.0-4.0-1.240","true"
"1081","ImagesTennis/TR95.png","188","test",",","image-keyboard-response","666","707774","0.0-4.0-1.241","true"
"1288","ImagesTennis/TR102.5.png","188","test",".","image-keyboard-response","668","709564","0.0-4.0-1.242","false"
"538","ImagesSoccer/VL105.png","188","test",",","image-keyboard-response","670","710606","0.0-4.0-1.243","true"
"1306","ImagesDirect/VR92.5.png","188","test",",","image-keyboard-response","672","712415","0.0-4.0-1.244","true"
"932","ImagesDirect/VR105.png","190","test",".","image-keyboard-response","674","713849","0.0-4.0-1.245","true"
"2369","ImagesTennis/TR107.5.png","190","test",".","image-keyboard-response","676","716722","0.0-4.0-1.246","true"
"995","ImagesDirect/VL100.png","188","test",".","image-keyboard-response","678","718220","0.0-4.0-1.247","false"
"3432","ImagesTennis/TL95.png","190","test",".","image-keyboard-response","680","722154","0.0-4.0-1.248","true"
"1213","ImagesSoccer/VR90.png","188","test",",","image-keyboard-response","682","723869","0.0-4.0-1.249","true"
"2651","ImagesDirect/VL92.5.png","188","test",".","image-keyboard-response","684","727023","0.0-4.0-1.250","false"
"1133","ImagesSoccer/VR95.png","188","test",",","image-keyboard-response","686","728659","0.0-4.0-1.251","true"
"2519","ImagesSoccer/VL95.png","188","test",".","image-keyboard-response","688","731682","0.0-4.0-1.252","false"
"746","ImagesDirect/VL90.png","190","test",".","image-keyboard-response","690","732934","0.0-4.0-1.253","true"
"672","ImagesTennis/TR97.5.png","188","test",",","image-keyboard-response","692","734109","0.0-4.0-1.254","true"
"544","ImagesDirect/VL110.png","188","test",",","image-keyboard-response","694","735155","0.0-4.0-1.255","true"
"500","ImagesSoccer/VL110.png","188","test",",","image-keyboard-response","696","736158","0.0-4.0-1.256","true"
"2521","ImagesSoccer/VL97.5.png","188","test",".","image-keyboard-response","698","739183","0.0-4.0-1.257","false"
"2670","ImagesTennis/TL97.5.png","190","test",".","image-keyboard-response","700","742355","0.0-4.0-1.258","true"
"543","ImagesTennis/TL107.5.png","188","test",",","image-keyboard-response","702","743403","0.0-4.0-1.259","true"
"1327","ImagesDirect/VR107.5.png","190","test",".","image-keyboard-response","704","745232","0.0-4.0-1.260","true"
"773","ImagesDirect/VR95.png","188","test",",","image-keyboard-response","706","746510","0.0-4.0-1.261","true"
"640","ImagesTennis/TL102.5.png","188","test",",","image-keyboard-response","708","747653","0.0-4.0-1.262","true"
"919","ImagesDirect/VL102.5.png","188","test",",","image-keyboard-response","710","749078","0.0-4.0-1.263","true"
"1220","ImagesDirect/VR100.png","188","test",".","image-keyboard-response","712","750800","0.0-4.0-1.264","false"
"1379","ImagesDirect/VL95.png","188","test",".","image-keyboard-response","714","752680","0.0-4.0-1.265","false"
"572","ImagesSoccer/VL100.png","188","test",".","image-keyboard-response","716","753754","0.0-4.0-1.266","false"
"3051","ImagesTennis/TR100.png","190","test",".","image-keyboard-response","718","757308","0.0-4.0-1.267","true"
"496","ImagesSoccer/VL107.5.png","188","test",",","image-keyboard-response","720","758308","0.0-4.0-1.268","true"
"826","ImagesSoccer/VR97.5.png","190","test",",","image-keyboard-response","722","759638","0.0-4.0-1.269","false"
