"rt","stimulus","key_press","test_part","correct_response","trial_type","trial_index","time_elapsed","internal_node_id","correct"
"1864","ImagesDirect/VL92.5.png","190","test",".","image-keyboard-response","4","40199","0.0-3.0-1.0","true"
"3716","ImagesTennis/TR90.png","188","test",",","image-keyboard-response","6","44418","0.0-3.0-1.1","true"
"3351","ImagesTennis/TR95.png","190","test",",","image-keyboard-response","8","48272","0.0-3.0-1.2","false"
"1997","ImagesDirect/VR107.5.png","190","test",".","image-keyboard-response","10","50773","0.0-3.0-1.3","true"
"1909","ImagesSoccer/VR92.5.png","190","test",",","image-keyboard-response","12","53184","0.0-3.0-1.4","false"
"2244","ImagesSoccer/VR90.png","188","test",",","image-keyboard-response","14","55931","0.0-3.0-1.5","true"
"1909","ImagesSoccer/VL105.png","188","test",",","image-keyboard-response","16","58344","0.0-3.0-1.6","true"
"2123","ImagesTennis/TL107.5.png","188","test",",","image-keyboard-response","18","60970","0.0-3.0-1.7","true"
"1913","ImagesTennis/TL100.png","190","test",".","image-keyboard-response","20","63386","0.0-3.0-1.8","true"
"1530","ImagesDirect/VR105.png","190","test",".","image-keyboard-response","22","65419","0.0-3.0-1.9","true"
"3341","ImagesTennis/TL105.png","188","test",",","image-keyboard-response","24","69261","0.0-3.0-1.10","true"
"2225","ImagesSoccer/VR102.5.png","190","test",".","image-keyboard-response","26","71989","0.0-3.0-1.11","true"
"1306","ImagesTennis/TL92.5.png","190","test",".","image-keyboard-response","28","73797","0.0-3.0-1.12","true"
"1699","ImagesDirect/VR100.png","190","test",".","image-keyboard-response","30","75998","0.0-3.0-1.13","true"
"1759","ImagesSoccer/VR100.png","190","test",".","image-keyboard-response","32","78260","0.0-3.0-1.14","true"
"1322","ImagesSoccer/VL107.5.png","188","test",",","image-keyboard-response","34","80084","0.0-3.0-1.15","true"
"1425","ImagesTennis/TL97.5.png","190","test",".","image-keyboard-response","36","82013","0.0-3.0-1.16","true"
"3956","ImagesDirect/VR95.png","190","test",",","image-keyboard-response","38","86471","0.0-3.0-1.17","false"
"1793","ImagesTennis/TL90.png","190","test",".","image-keyboard-response","40","88767","0.0-3.0-1.18","true"
"1586","ImagesSoccer/VL92.5.png","190","test",".","image-keyboard-response","42","90855","0.0-3.0-1.19","true"
"2746","ImagesDirect/VR90.png","188","test",",","image-keyboard-response","44","94103","0.0-3.0-1.20","true"
"2679","ImagesSoccer/VL97.5.png","188","test",".","image-keyboard-response","46","97285","0.0-3.0-1.21","false"
"1665","ImagesTennis/TL110.png","188","test",",","image-keyboard-response","48","99453","0.0-3.0-1.22","true"
"1639","ImagesDirect/VL105.png","188","test",",","image-keyboard-response","50","101595","0.0-3.0-1.23","true"
"1176","ImagesTennis/TR102.5.png","190","test",".","image-keyboard-response","52","103275","0.0-3.0-1.24","true"
"1572","ImagesDirect/VL95.png","190","test",".","image-keyboard-response","54","105348","0.0-3.0-1.25","true"
"1538","ImagesDirect/VL107.5.png","188","test",",","image-keyboard-response","56","107389","0.0-3.0-1.26","true"
"1106","ImagesSoccer/VL90.png","190","test",".","image-keyboard-response","58","108997","0.0-3.0-1.27","true"
"4652","ImagesDirect/VL97.5.png","190","test",".","image-keyboard-response","60","114151","0.0-3.0-1.28","true"
"1418","ImagesSoccer/VR105.png","190","test",".","image-keyboard-response","62","116073","0.0-3.0-1.29","true"
"1167","ImagesTennis/TR107.5.png","190","test",".","image-keyboard-response","64","117743","0.0-3.0-1.30","true"
"1048","ImagesSoccer/VR107.5.png","190","test",".","image-keyboard-response","66","119293","0.0-3.0-1.31","true"
"1139","ImagesSoccer/VL110.png","188","test",",","image-keyboard-response","68","120934","0.0-3.0-1.32","true"
"751","ImagesTennis/TR110.png","190","test",".","image-keyboard-response","70","122192","0.0-3.0-1.33","true"
"1356","ImagesDirect/VR92.5.png","188","test",",","image-keyboard-response","72","124050","0.0-3.0-1.34","true"
"3776","ImagesTennis/TL102.5.png","188","test",",","image-keyboard-response","74","128328","0.0-3.0-1.35","true"
"1426","ImagesDirect/VL90.png","190","test",".","image-keyboard-response","76","130257","0.0-3.0-1.36","true"
"741","ImagesTennis/TR105.png","190","test",".","image-keyboard-response","78","131500","0.0-3.0-1.37","true"
"2384","ImagesDirect/VL100.png","188","test",".","image-keyboard-response","80","134388","0.0-3.0-1.38","false"
"1696","ImagesDirect/VR97.5.png","190","test",",","image-keyboard-response","82","136587","0.0-3.0-1.39","false"
"981","ImagesTennis/TL95.png","190","test",".","image-keyboard-response","84","138070","0.0-3.0-1.40","true"
"648","ImagesSoccer/VR110.png","190","test",".","image-keyboard-response","86","139221","0.0-3.0-1.41","true"
"1326","ImagesTennis/TR100.png","190","test",".","image-keyboard-response","88","141050","0.0-3.0-1.42","true"
"1051","ImagesTennis/TR92.5.png","188","test",",","image-keyboard-response","90","142604","0.0-3.0-1.43","true"
"1468","ImagesTennis/TR97.5.png","188","test",",","image-keyboard-response","92","144575","0.0-3.0-1.44","true"
"978","ImagesSoccer/VR95.png","190","test",",","image-keyboard-response","94","146055","0.0-3.0-1.45","false"
"462","ImagesDirect/VR102.5.png","190","test",".","image-keyboard-response","96","147020","0.0-3.0-1.46","true"
"1657","ImagesSoccer/VL102.5.png","188","test",",","image-keyboard-response","98","149180","0.0-3.0-1.47","true"
"2712","ImagesSoccer/VR97.5.png","188","test",",","image-keyboard-response","100","152395","0.0-3.0-1.48","true"
"850","ImagesDirect/VR110.png","190","test",".","image-keyboard-response","102","153748","0.0-3.0-1.49","true"
"815","ImagesSoccer/VL95.png","190","test",".","image-keyboard-response","104","155065","0.0-3.0-1.50","true"
"1844","ImagesSoccer/VL100.png","188","test",".","image-keyboard-response","106","157411","0.0-3.0-1.51","false"
"1028","ImagesDirect/VL110.png","188","test",",","image-keyboard-response","108","158941","0.0-3.0-1.52","true"
"2324","ImagesDirect/VL102.5.png","188","test",",","image-keyboard-response","110","161767","0.0-3.0-1.53","true"
"919","ImagesDirect/VR102.5.png","190","test",".","image-keyboard-response","112","163189","0.0-3.0-1.54","true"
"2234","ImagesSoccer/VL107.5.png","188","test",",","image-keyboard-response","114","165926","0.0-3.0-1.55","true"
"722","ImagesTennis/TL90.png","190","test",".","image-keyboard-response","116","167150","0.0-3.0-1.56","true"
"1145","ImagesSoccer/VL97.5.png","190","test",".","image-keyboard-response","118","168797","0.0-3.0-1.57","true"
"1625","ImagesDirect/VL95.png","190","test",".","image-keyboard-response","120","170925","0.0-3.0-1.58","true"
"1406","ImagesDirect/VL97.5.png","190","test",".","image-keyboard-response","122","172833","0.0-3.0-1.59","true"
"926","ImagesTennis/TR95.png","188","test",",","image-keyboard-response","124","174261","0.0-3.0-1.60","true"
"623","ImagesSoccer/VR105.png","190","test",".","image-keyboard-response","126","175386","0.0-3.0-1.61","true"
"2040","ImagesTennis/TL102.5.png","188","test",",","image-keyboard-response","128","177929","0.0-3.0-1.62","true"
"1676","ImagesSoccer/VL100.png","188","test",".","image-keyboard-response","130","180107","0.0-3.0-1.63","false"
"1329","ImagesDirect/VR97.5.png","190","test",",","image-keyboard-response","132","181939","0.0-3.0-1.64","false"
"1344","ImagesDirect/VR107.5.png","190","test",".","image-keyboard-response","134","183785","0.0-3.0-1.65","true"
"981","ImagesTennis/TR110.png","190","test",".","image-keyboard-response","136","185270","0.0-3.0-1.66","true"
"950","ImagesDirect/VL107.5.png","188","test",",","image-keyboard-response","138","186723","0.0-3.0-1.67","true"
"1272","ImagesTennis/TR92.5.png","188","test",",","image-keyboard-response","140","188496","0.0-3.0-1.68","true"
"1337","ImagesDirect/VR92.5.png","188","test",",","image-keyboard-response","142","190336","0.0-3.0-1.69","true"
"840","ImagesSoccer/VR110.png","190","test",".","image-keyboard-response","144","191678","0.0-3.0-1.70","true"
"771","ImagesSoccer/VL102.5.png","188","test",",","image-keyboard-response","146","192952","0.0-3.0-1.71","true"
"638","ImagesSoccer/VR102.5.png","190","test",".","image-keyboard-response","148","194092","0.0-3.0-1.72","true"
"1950","ImagesSoccer/VL95.png","190","test",".","image-keyboard-response","150","196544","0.0-3.0-1.73","true"
"540","ImagesDirect/VR110.png","190","test",".","image-keyboard-response","152","197589","0.0-3.0-1.74","true"
"1496","ImagesDirect/VL105.png","188","test",",","image-keyboard-response","154","199587","0.0-3.0-1.75","true"
"1329","ImagesTennis/TL95.png","190","test",".","image-keyboard-response","156","201418","0.0-3.0-1.76","true"
"2813","ImagesSoccer/VR95.png","190","test",",","image-keyboard-response","158","204734","0.0-3.0-1.77","false"
"1022","ImagesTennis/TL105.png","188","test",",","image-keyboard-response","160","206259","0.0-3.0-1.78","true"
"1691","ImagesDirect/VR95.png","188","test",",","image-keyboard-response","162","208453","0.0-3.0-1.79","true"
"1650","ImagesTennis/TL107.5.png","188","test",",","image-keyboard-response","164","210607","0.0-3.0-1.80","true"
"1916","ImagesDirect/VR90.png","188","test",",","image-keyboard-response","166","213026","0.0-3.0-1.81","true"
"976","ImagesSoccer/VL92.5.png","190","test",".","image-keyboard-response","168","214504","0.0-3.0-1.82","true"
"1179","ImagesTennis/TR90.png","188","test",",","image-keyboard-response","170","216185","0.0-3.0-1.83","true"
"575","ImagesSoccer/VL110.png","188","test",",","image-keyboard-response","172","217262","0.0-3.0-1.84","true"
"555","ImagesTennis/TR105.png","190","test",".","image-keyboard-response","174","218320","0.0-3.0-1.85","true"
"812","ImagesTennis/TL110.png","188","test",",","image-keyboard-response","176","219634","0.0-3.0-1.86","true"
"983","ImagesSoccer/VR100.png","190","test",".","image-keyboard-response","178","221119","0.0-3.0-1.87","true"
"2045","ImagesTennis/TR100.png","190","test",".","image-keyboard-response","180","223666","0.0-3.0-1.88","true"
"643","ImagesDirect/VR100.png","190","test",".","image-keyboard-response","182","224811","0.0-3.0-1.89","true"
"1308","ImagesDirect/VL110.png","188","test",",","image-keyboard-response","184","226621","0.0-3.0-1.90","true"
"904","ImagesSoccer/VL90.png","190","test",".","image-keyboard-response","186","228026","0.0-3.0-1.91","true"
"1053","ImagesSoccer/VR92.5.png","188","test",",","image-keyboard-response","188","229583","0.0-3.0-1.92","true"
"1603","ImagesSoccer/VR90.png","188","test",",","image-keyboard-response","190","231688","0.0-3.0-1.93","true"
"524","ImagesTennis/TR107.5.png","190","test",".","image-keyboard-response","192","232715","0.0-3.0-1.94","true"
"703","ImagesDirect/VL102.5.png","188","test",",","image-keyboard-response","194","233921","0.0-3.0-1.95","true"
"1653","ImagesTennis/TL97.5.png","190","test",".","image-keyboard-response","196","236077","0.0-3.0-1.96","true"
"472","ImagesTennis/TR102.5.png","190","test",".","image-keyboard-response","198","237051","0.0-3.0-1.97","true"
"1394","ImagesTennis/TL100.png","190","test",".","image-keyboard-response","200","238947","0.0-3.0-1.98","true"
"1985","ImagesSoccer/VR97.5.png","190","test",",","image-keyboard-response","202","241434","0.0-3.0-1.99","false"
"782","ImagesSoccer/VL105.png","188","test",",","image-keyboard-response","204","242719","0.0-3.0-1.100","true"
"548","ImagesDirect/VL92.5.png","190","test",".","image-keyboard-response","206","243770","0.0-3.0-1.101","true"
"458","ImagesTennis/TR97.5.png","190","test",",","image-keyboard-response","208","244730","0.0-3.0-1.102","false"
"897","ImagesDirect/VL90.png","190","test",".","image-keyboard-response","210","246129","0.0-3.0-1.103","true"
"1443","ImagesDirect/VL100.png","188","test",".","image-keyboard-response","212","248075","0.0-3.0-1.104","false"
"469","ImagesSoccer/VR107.5.png","190","test",".","image-keyboard-response","214","249046","0.0-3.0-1.105","true"
"578","ImagesDirect/VR105.png","190","test",".","image-keyboard-response","216","250127","0.0-3.0-1.106","true"
"741","ImagesTennis/TL92.5.png","190","test",".","image-keyboard-response","218","251370","0.0-3.0-1.107","true"
"1179","ImagesSoccer/VL95.png","190","test",".","image-keyboard-response","220","253052","0.0-3.0-1.108","true"
"683","ImagesTennis/TL90.png","190","test",".","image-keyboard-response","222","254237","0.0-3.0-1.109","true"
"570","ImagesDirect/VR102.5.png","190","test",".","image-keyboard-response","224","255310","0.0-3.0-1.110","true"
"1574","ImagesTennis/TR90.png","188","test",",","image-keyboard-response","226","257387","0.0-3.0-1.111","true"
"1937","ImagesDirect/VL102.5.png","188","test",",","image-keyboard-response","228","259827","0.0-3.0-1.112","true"
"970","ImagesDirect/VL107.5.png","188","test",",","image-keyboard-response","230","261300","0.0-3.0-1.113","true"
"815","ImagesSoccer/VR107.5.png","190","test",".","image-keyboard-response","232","262618","0.0-3.0-1.114","true"
"492","ImagesTennis/TR107.5.png","190","test",".","image-keyboard-response","234","263614","0.0-3.0-1.115","true"
"473","ImagesSoccer/VR97.5.png","190","test",",","image-keyboard-response","236","264590","0.0-3.0-1.116","false"
"1662","ImagesSoccer/VL92.5.png","190","test",".","image-keyboard-response","238","266757","0.0-3.0-1.117","true"
"979","ImagesSoccer/VL102.5.png","188","test",",","image-keyboard-response","240","268239","0.0-3.0-1.118","true"
"563","ImagesDirect/VL90.png","190","test",".","image-keyboard-response","242","269304","0.0-3.0-1.119","true"
"638","ImagesSoccer/VL110.png","188","test",",","image-keyboard-response","244","270446","0.0-3.0-1.120","true"
"917","ImagesTennis/TL107.5.png","188","test",",","image-keyboard-response","246","271866","0.0-3.0-1.121","true"
"737","ImagesDirect/VL110.png","188","test",",","image-keyboard-response","248","273106","0.0-3.0-1.122","true"
"874","ImagesTennis/TL102.5.png","188","test",",","image-keyboard-response","250","274483","0.0-3.0-1.123","true"
"910","ImagesSoccer/VL90.png","190","test",".","image-keyboard-response","252","275894","0.0-3.0-1.124","true"
"1410","ImagesDirect/VL105.png","188","test",",","image-keyboard-response","254","277807","0.0-3.0-1.125","true"
"1006","ImagesDirect/VR95.png","190","test",",","image-keyboard-response","256","279315","0.0-3.0-1.126","false"
"1000","ImagesDirect/VR110.png","190","test",".","image-keyboard-response","258","280819","0.0-3.0-1.127","true"
"804","ImagesTennis/TR102.5.png","190","test",".","image-keyboard-response","260","282125","0.0-3.0-1.128","true"
"1310","ImagesTennis/TL105.png","188","test",",","image-keyboard-response","262","283937","0.0-3.0-1.129","true"
"1123","ImagesSoccer/VR102.5.png","190","test",".","image-keyboard-response","264","285562","0.0-3.0-1.130","true"
"4841","ImagesSoccer/VL97.5.png","190","test",".","image-keyboard-response","266","290907","0.0-3.0-1.131","true"
"812","ImagesTennis/TR110.png","190","test",".","image-keyboard-response","268","292222","0.0-3.0-1.132","true"
"2139","ImagesSoccer/VR95.png","190","test",",","image-keyboard-response","270","294863","0.0-3.0-1.133","false"
"901","ImagesDirect/VR105.png","190","test",".","image-keyboard-response","272","296267","0.0-3.0-1.134","true"
"1831","ImagesDirect/VL95.png","190","test",".","image-keyboard-response","274","298600","0.0-3.0-1.135","true"
"986","ImagesSoccer/VL105.png","188","test",",","image-keyboard-response","276","300089","0.0-3.0-1.136","true"
"657","ImagesTennis/TL110.png","188","test",",","image-keyboard-response","278","301248","0.0-3.0-1.137","true"
"550","ImagesDirect/VR100.png","190","test",".","image-keyboard-response","280","302300","0.0-3.0-1.138","true"
"1779","ImagesTennis/TR100.png","190","test",".","image-keyboard-response","282","304581","0.0-3.0-1.139","true"
"1783","ImagesTennis/TL100.png","190","test",".","image-keyboard-response","284","306866","0.0-3.0-1.140","true"
"1903","ImagesDirect/VL92.5.png","190","test",".","image-keyboard-response","286","309270","0.0-3.0-1.141","true"
"1448","ImagesSoccer/VR90.png","188","test",",","image-keyboard-response","288","311221","0.0-3.0-1.142","true"
"1556","ImagesDirect/VR97.5.png","190","test",",","image-keyboard-response","290","313279","0.0-3.0-1.143","false"
"1890","ImagesSoccer/VR92.5.png","190","test",",","image-keyboard-response","292","315672","0.0-3.0-1.144","false"
"633","ImagesDirect/VL100.png","190","test",".","image-keyboard-response","294","316807","0.0-3.0-1.145","true"
"641","ImagesSoccer/VR110.png","190","test",".","image-keyboard-response","296","317951","0.0-3.0-1.146","true"
"649","ImagesTennis/TR105.png","190","test",".","image-keyboard-response","298","319102","0.0-3.0-1.147","true"
"563","ImagesDirect/VR107.5.png","190","test",".","image-keyboard-response","300","320168","0.0-3.0-1.148","true"
"1317","ImagesDirect/VR90.png","188","test",",","image-keyboard-response","302","321988","0.0-3.0-1.149","true"
"945","ImagesTennis/TL92.5.png","190","test",".","image-keyboard-response","304","323435","0.0-3.0-1.150","true"
"860","ImagesTennis/TL95.png","190","test",".","image-keyboard-response","306","324798","0.0-3.0-1.151","true"
"731","ImagesTennis/TL97.5.png","190","test",".","image-keyboard-response","308","326032","0.0-3.0-1.152","true"
"1948","ImagesSoccer/VL100.png","188","test",".","image-keyboard-response","310","328484","0.0-3.0-1.153","false"
"831","ImagesSoccer/VL107.5.png","188","test",",","image-keyboard-response","312","329817","0.0-3.0-1.154","true"
"1026","ImagesTennis/TR92.5.png","188","test",",","image-keyboard-response","314","331345","0.0-3.0-1.155","true"
"552","ImagesSoccer/VR100.png","190","test",".","image-keyboard-response","316","332400","0.0-3.0-1.156","true"
"1244","ImagesDirect/VR92.5.png","190","test",",","image-keyboard-response","318","334147","0.0-3.0-1.157","false"
"2077","ImagesDirect/VL97.5.png","190","test",".","image-keyboard-response","320","336727","0.0-3.0-1.158","true"
"1604","ImagesTennis/TR97.5.png","190","test",",","image-keyboard-response","322","338834","0.0-3.0-1.159","false"
"846","ImagesTennis/TR95.png","188","test",",","image-keyboard-response","324","340182","0.0-3.0-1.160","true"
"430","ImagesSoccer/VR105.png","190","test",".","image-keyboard-response","326","341114","0.0-3.0-1.161","true"
"1509","ImagesTennis/TL102.5.png","190","test",",","image-keyboard-response","328","343125","0.0-3.0-1.162","false"
"867","ImagesDirect/VR97.5.png","190","test",",","image-keyboard-response","330","344495","0.0-3.0-1.163","false"
"1242","ImagesSoccer/VR107.5.png","190","test",".","image-keyboard-response","332","346240","0.0-3.0-1.164","true"
"1237","ImagesDirect/VR100.png","190","test",".","image-keyboard-response","334","347980","0.0-3.0-1.165","true"
"1244","ImagesSoccer/VR110.png","190","test",".","image-keyboard-response","336","349725","0.0-3.0-1.166","true"
"1583","ImagesTennis/TR90.png","188","test",",","image-keyboard-response","338","351810","0.0-3.0-1.167","true"
"1460","ImagesDirect/VL102.5.png","188","test",",","image-keyboard-response","340","353772","0.0-3.0-1.168","true"
"1179","ImagesTennis/TL107.5.png","188","test",",","image-keyboard-response","342","355453","0.0-3.0-1.169","true"
"641","ImagesTennis/TR95.png","190","test",",","image-keyboard-response","344","356597","0.0-3.0-1.170","false"
"615","ImagesDirect/VR102.5.png","190","test",".","image-keyboard-response","346","357714","0.0-3.0-1.171","true"
"600","ImagesSoccer/VL107.5.png","188","test",",","image-keyboard-response","348","358816","0.0-3.0-1.172","true"
"553","ImagesSoccer/VR102.5.png","190","test",".","image-keyboard-response","350","359872","0.0-3.0-1.173","true"
"2042","ImagesTennis/TR97.5.png","190","test",",","image-keyboard-response","352","362418","0.0-3.0-1.174","false"
"846","ImagesSoccer/VL100.png","188","test",".","image-keyboard-response","354","363766","0.0-3.0-1.175","false"
"921","ImagesSoccer/VR90.png","188","test",",","image-keyboard-response","356","365191","0.0-3.0-1.176","true"
"1407","ImagesDirect/VL100.png","188","test",".","image-keyboard-response","358","367100","0.0-3.0-1.177","false"
"790","ImagesTennis/TR107.5.png","190","test",".","image-keyboard-response","360","368392","0.0-3.0-1.178","true"
"597","ImagesDirect/VL105.png","188","test",",","image-keyboard-response","362","369493","0.0-3.0-1.179","true"
"4106","ImagesDirect/VL95.png","190","test",".","image-keyboard-response","364","374101","0.0-3.0-1.180","true"
"641","ImagesDirect/VR107.5.png","190","test",".","image-keyboard-response","366","375245","0.0-3.0-1.181","true"
"1514","ImagesDirect/VL92.5.png","190","test",".","image-keyboard-response","368","377261","0.0-3.0-1.182","true"
"911","ImagesTennis/TR92.5.png","188","test",",","image-keyboard-response","370","378675","0.0-3.0-1.183","true"
"1452","ImagesSoccer/VR92.5.png","188","test",",","image-keyboard-response","372","380630","0.0-3.0-1.184","true"
"674","ImagesSoccer/VR105.png","190","test",".","image-keyboard-response","374","381807","0.0-3.0-1.185","true"
"1079","ImagesDirect/VR92.5.png","188","test",",","image-keyboard-response","376","383388","0.0-3.0-1.186","true"
"478","ImagesDirect/VR105.png","190","test",".","image-keyboard-response","378","384369","0.0-3.0-1.187","true"
"1065","ImagesDirect/VR90.png","188","test",",","image-keyboard-response","380","385937","0.0-3.0-1.188","true"
"778","ImagesSoccer/VL110.png","188","test",",","image-keyboard-response","382","387217","0.0-3.0-1.189","true"
"753","ImagesSoccer/VR95.png","190","test",",","image-keyboard-response","384","388472","0.0-3.0-1.190","false"
"537","ImagesDirect/VL90.png","190","test",".","image-keyboard-response","386","389511","0.0-3.0-1.191","true"
"554","ImagesDirect/VL110.png","188","test",",","image-keyboard-response","388","390568","0.0-3.0-1.192","true"
"1262","ImagesTennis/TL100.png","188","test",".","image-keyboard-response","390","392332","0.0-3.0-1.193","false"
"597","ImagesSoccer/VR100.png","190","test",".","image-keyboard-response","392","393432","0.0-3.0-1.194","true"
"817","ImagesSoccer/VL92.5.png","190","test",".","image-keyboard-response","394","394751","0.0-3.0-1.195","true"
"473","ImagesTennis/TR102.5.png","190","test",".","image-keyboard-response","396","395726","0.0-3.0-1.196","true"
"784","ImagesDirect/VR95.png","188","test",",","image-keyboard-response","398","397014","0.0-3.0-1.197","true"
"579","ImagesTennis/TR100.png","190","test",".","image-keyboard-response","400","398096","0.0-3.0-1.198","true"
"594","ImagesTennis/TL110.png","188","test",",","image-keyboard-response","402","399192","0.0-3.0-1.199","true"
"524","ImagesSoccer/VL102.5.png","188","test",",","image-keyboard-response","404","400218","0.0-3.0-1.200","true"
"645","ImagesTennis/TL97.5.png","190","test",".","image-keyboard-response","406","401367","0.0-3.0-1.201","true"
"1370","ImagesSoccer/VL97.5.png","190","test",".","image-keyboard-response","408","403240","0.0-3.0-1.202","true"
"740","ImagesTennis/TL90.png","188","test",".","image-keyboard-response","410","404482","0.0-3.0-1.203","false"
"600","ImagesSoccer/VL105.png","188","test",",","image-keyboard-response","412","405584","0.0-3.0-1.204","true"
"531","ImagesDirect/VL107.5.png","188","test",",","image-keyboard-response","414","406618","0.0-3.0-1.205","true"
"2027","ImagesSoccer/VL95.png","190","test",".","image-keyboard-response","416","409147","0.0-3.0-1.206","true"
"553","ImagesTennis/TL92.5.png","190","test",".","image-keyboard-response","418","410203","0.0-3.0-1.207","true"
"495","ImagesDirect/VR110.png","190","test",".","image-keyboard-response","420","411201","0.0-3.0-1.208","true"
"796","ImagesSoccer/VL90.png","190","test",".","image-keyboard-response","422","412500","0.0-3.0-1.209","true"
"1072","ImagesDirect/VL97.5.png","190","test",".","image-keyboard-response","424","414074","0.0-3.0-1.210","true"
"740","ImagesSoccer/VR97.5.png","190","test",",","image-keyboard-response","426","415316","0.0-3.0-1.211","false"
"515","ImagesTennis/TR110.png","190","test",".","image-keyboard-response","428","416334","0.0-3.0-1.212","true"
"1506","ImagesTennis/TL105.png","188","test",",","image-keyboard-response","430","418342","0.0-3.0-1.213","true"
"614","ImagesTennis/TL95.png","188","test",".","image-keyboard-response","432","419460","0.0-3.0-1.214","false"
"438","ImagesTennis/TR105.png","190","test",".","image-keyboard-response","434","420402","0.0-3.0-1.215","true"
"686","ImagesDirect/VR105.png","190","test",".","image-keyboard-response","436","421591","0.0-3.0-1.216","true"
"1471","ImagesDirect/VL90.png","190","test",".","image-keyboard-response","438","423564","0.0-3.0-1.217","true"
"1277","ImagesDirect/VL97.5.png","188","test",".","image-keyboard-response","440","425343","0.0-3.0-1.218","false"
"790","ImagesSoccer/VL100.png","188","test",".","image-keyboard-response","442","426635","0.0-3.0-1.219","false"
"472","ImagesTennis/TR100.png","190","test",".","image-keyboard-response","444","427610","0.0-3.0-1.220","true"
"759","ImagesSoccer/VL105.png","188","test",",","image-keyboard-response","446","428871","0.0-3.0-1.221","true"
"1774","ImagesTennis/TL102.5.png","190","test",",","image-keyboard-response","448","431147","0.0-3.0-1.222","false"
"424","ImagesTennis/TR107.5.png","190","test",".","image-keyboard-response","450","432075","0.0-3.0-1.223","true"
"2351","ImagesDirect/VR97.5.png","190","test",",","image-keyboard-response","452","434928","0.0-3.0-1.224","false"
"518","ImagesTennis/TR110.png","190","test",".","image-keyboard-response","454","435948","0.0-3.0-1.225","true"
"908","ImagesTennis/TL110.png","188","test",",","image-keyboard-response","456","437359","0.0-3.0-1.226","true"
"541","ImagesSoccer/VL110.png","188","test",",","image-keyboard-response","458","438402","0.0-3.0-1.227","true"
"871","ImagesDirect/VL92.5.png","190","test",".","image-keyboard-response","460","439776","0.0-3.0-1.228","true"
"628","ImagesDirect/VL100.png","188","test",".","image-keyboard-response","462","440907","0.0-3.0-1.229","false"
"919","ImagesDirect/VL110.png","188","test",",","image-keyboard-response","464","442329","0.0-3.0-1.230","true"
"788","ImagesTennis/TR102.5.png","190","test",".","image-keyboard-response","466","443620","0.0-3.0-1.231","true"
"965","ImagesSoccer/VR110.png","190","test",".","image-keyboard-response","468","445088","0.0-3.0-1.232","true"
"1864","ImagesDirect/VL107.5.png","188","test",",","image-keyboard-response","470","447454","0.0-3.0-1.233","true"
"743","ImagesSoccer/VL92.5.png","190","test",".","image-keyboard-response","472","448701","0.0-3.0-1.234","true"
"1729","ImagesSoccer/VL95.png","190","test",".","image-keyboard-response","474","450932","0.0-3.0-1.235","true"
"647","ImagesDirect/VL105.png","188","test",",","image-keyboard-response","476","452083","0.0-3.0-1.236","true"
"472","ImagesSoccer/VR92.5.png","190","test",",","image-keyboard-response","478","453057","0.0-3.0-1.237","false"
"726","ImagesDirect/VR110.png","190","test",".","image-keyboard-response","480","454286","0.0-3.0-1.238","true"
"516","ImagesDirect/VR102.5.png","190","test",".","image-keyboard-response","482","455303","0.0-3.0-1.239","true"
"691","ImagesTennis/TL90.png","190","test",".","image-keyboard-response","484","456497","0.0-3.0-1.240","true"
"848","ImagesSoccer/VR97.5.png","190","test",",","image-keyboard-response","486","457848","0.0-3.0-1.241","false"
"780","ImagesDirect/VR100.png","190","test",".","image-keyboard-response","488","459131","0.0-3.0-1.242","true"
"1781","ImagesSoccer/VR95.png","190","test",",","image-keyboard-response","490","461414","0.0-3.0-1.243","false"
"1108","ImagesDirect/VL95.png","190","test",".","image-keyboard-response","492","463025","0.0-3.0-1.244","true"
"499","ImagesSoccer/VR107.5.png","190","test",".","image-keyboard-response","494","464026","0.0-3.0-1.245","true"
"933","ImagesSoccer/VL107.5.png","188","test",",","image-keyboard-response","496","465462","0.0-3.0-1.246","true"
"686","ImagesSoccer/VR100.png","190","test",".","image-keyboard-response","498","466651","0.0-3.0-1.247","true"
"537","ImagesTennis/TR95.png","190","test",",","image-keyboard-response","500","467691","0.0-3.0-1.248","false"
"776","ImagesTennis/TL95.png","190","test",".","image-keyboard-response","502","468969","0.0-3.0-1.249","true"
"995","ImagesSoccer/VL97.5.png","190","test",".","image-keyboard-response","504","470466","0.0-3.0-1.250","true"
"833","ImagesTennis/TL105.png","188","test",",","image-keyboard-response","506","471801","0.0-3.0-1.251","true"
"589","ImagesDirect/VR107.5.png","190","test",".","image-keyboard-response","508","472892","0.0-3.0-1.252","true"
"1811","ImagesDirect/VR92.5.png","188","test",",","image-keyboard-response","510","475206","0.0-3.0-1.253","true"
"675","ImagesSoccer/VR105.png","190","test",".","image-keyboard-response","512","476384","0.0-3.0-1.254","true"
"515","ImagesSoccer/VL102.5.png","188","test",",","image-keyboard-response","514","477401","0.0-3.0-1.255","true"
"465","ImagesTennis/TL100.png","188","test",".","image-keyboard-response","516","478369","0.0-3.0-1.256","false"
"1307","ImagesDirect/VR90.png","188","test",",","image-keyboard-response","518","480179","0.0-3.0-1.257","true"
"824","ImagesTennis/TR92.5.png","188","test",",","image-keyboard-response","520","481506","0.0-3.0-1.258","true"
"584","ImagesTennis/TL107.5.png","188","test",",","image-keyboard-response","522","482592","0.0-3.0-1.259","true"
"1122","ImagesSoccer/VR90.png","188","test",",","image-keyboard-response","524","484217","0.0-3.0-1.260","true"
"814","ImagesTennis/TL92.5.png","190","test",".","image-keyboard-response","526","485534","0.0-3.0-1.261","true"
"1107","ImagesTennis/TR97.5.png","190","test",",","image-keyboard-response","528","487143","0.0-3.0-1.262","false"
"567","ImagesSoccer/VR102.5.png","190","test",".","image-keyboard-response","530","488214","0.0-3.0-1.263","true"
"616","ImagesTennis/TR90.png","188","test",",","image-keyboard-response","532","489334","0.0-3.0-1.264","true"
"941","ImagesSoccer/VL90.png","190","test",".","image-keyboard-response","534","490779","0.0-3.0-1.265","true"
"2775","ImagesTennis/TL97.5.png","188","test",".","image-keyboard-response","536","494057","0.0-3.0-1.266","false"
"2577","ImagesDirect/VR95.png","188","test",",","image-keyboard-response","538","497137","0.0-3.0-1.267","true"
"1131","ImagesDirect/VL102.5.png","188","test",",","image-keyboard-response","540","498771","0.0-3.0-1.268","true"
"698","ImagesTennis/TR105.png","190","test",".","image-keyboard-response","542","499974","0.0-3.0-1.269","true"
"3842","ImagesCoins/10L107.5.png","188","test",",","image-keyboard-response","544","504319","0.0-4.0-1.0","true"
"3175","ImagesCoins/10L100.png","188","test",".","image-keyboard-response","546","507996","0.0-4.0-1.1","false"
"1344","ImagesCoins/10L105.png","188","test",",","image-keyboard-response","548","509843","0.0-4.0-1.2","true"
"3238","ImagesCoins/10R102.5.png","190","test",".","image-keyboard-response","550","513583","0.0-4.0-1.3","true"
"1997","ImagesCoins/10L102.5.png","188","test",",","image-keyboard-response","552","516082","0.0-4.0-1.4","true"
"2223","ImagesCoins/10R105.png","190","test",".","image-keyboard-response","554","518807","0.0-4.0-1.5","true"
"1452","ImagesCoins/10R92.5.png","188","test",",","image-keyboard-response","556","520761","0.0-4.0-1.6","true"
"4258","ImagesCoins/10R97.5.png","188","test",",","image-keyboard-response","558","525523","0.0-4.0-1.7","true"
"1275","ImagesCoins/10R100.png","190","test",".","image-keyboard-response","560","527301","0.0-4.0-1.8","true"
"825","ImagesCoins/10L95.png","190","test",".","image-keyboard-response","562","528629","0.0-4.0-1.9","true"
"1273","ImagesCoins/10R95.png","188","test",",","image-keyboard-response","564","530405","0.0-4.0-1.10","true"
"610","ImagesCoins/10R107.5.png","190","test",".","image-keyboard-response","566","531517","0.0-4.0-1.11","true"
"908","ImagesCoins/10L90.png","190","test",".","image-keyboard-response","568","532927","0.0-4.0-1.12","true"
"2721","ImagesCoins/10L97.5.png","190","test",".","image-keyboard-response","570","536150","0.0-4.0-1.13","true"
"796","ImagesCoins/10L92.5.png","190","test",".","image-keyboard-response","572","537449","0.0-4.0-1.14","true"
"1343","ImagesCoins/10R110.png","190","test",".","image-keyboard-response","574","539295","0.0-4.0-1.15","true"
"807","ImagesCoins/10R90.png","188","test",",","image-keyboard-response","576","540605","0.0-4.0-1.16","true"
"1187","ImagesCoins/10L110.png","188","test",",","image-keyboard-response","578","542295","0.0-4.0-1.17","true"
"1831","ImagesCoins/10R97.5.png","190","test",",","image-keyboard-response","580","544629","0.0-4.0-1.18","false"
"1116","ImagesCoins/10L110.png","188","test",",","image-keyboard-response","582","546248","0.0-4.0-1.19","true"
"1315","ImagesCoins/10L102.5.png","190","test",",","image-keyboard-response","584","548066","0.0-4.0-1.20","false"
"695","ImagesCoins/10L92.5.png","190","test",".","image-keyboard-response","586","549263","0.0-4.0-1.21","true"
"1084","ImagesCoins/10L90.png","190","test",".","image-keyboard-response","588","550850","0.0-4.0-1.22","true"
"794","ImagesCoins/10R102.5.png","190","test",".","image-keyboard-response","590","552149","0.0-4.0-1.23","true"
"635","ImagesCoins/10L107.5.png","188","test",",","image-keyboard-response","592","553286","0.0-4.0-1.24","true"
"1088","ImagesCoins/10R95.png","188","test",",","image-keyboard-response","594","554876","0.0-4.0-1.25","true"
"747","ImagesCoins/10L95.png","190","test",".","image-keyboard-response","596","556125","0.0-4.0-1.26","true"
"1075","ImagesCoins/10R105.png","190","test",".","image-keyboard-response","598","557702","0.0-4.0-1.27","true"
"819","ImagesCoins/10R110.png","190","test",".","image-keyboard-response","600","559023","0.0-4.0-1.28","true"
"2366","ImagesCoins/10R100.png","188","test",".","image-keyboard-response","602","561892","0.0-4.0-1.29","false"
"1363","ImagesCoins/10R92.5.png","188","test",",","image-keyboard-response","604","563759","0.0-4.0-1.30","true"
"1173","ImagesCoins/10L105.png","188","test",",","image-keyboard-response","606","565434","0.0-4.0-1.31","true"
"891","ImagesCoins/10R90.png","188","test",",","image-keyboard-response","608","566827","0.0-4.0-1.32","true"
"863","ImagesCoins/10L100.png","190","test",".","image-keyboard-response","610","568192","0.0-4.0-1.33","true"
"1315","ImagesCoins/10L97.5.png","190","test",".","image-keyboard-response","612","570010","0.0-4.0-1.34","true"
"1227","ImagesCoins/10R107.5.png","190","test",".","image-keyboard-response","614","571743","0.0-4.0-1.35","true"
"1314","ImagesCoins/10L97.5.png","188","test",".","image-keyboard-response","616","573560","0.0-4.0-1.36","false"
"728","ImagesCoins/10R102.5.png","190","test",".","image-keyboard-response","618","574790","0.0-4.0-1.37","true"
"1505","ImagesCoins/10L95.png","190","test",".","image-keyboard-response","620","576798","0.0-4.0-1.38","true"
"712","ImagesCoins/10L110.png","188","test",",","image-keyboard-response","622","578013","0.0-4.0-1.39","true"
"1006","ImagesCoins/10L100.png","190","test",".","image-keyboard-response","624","579523","0.0-4.0-1.40","true"
"1462","ImagesCoins/10L102.5.png","188","test",",","image-keyboard-response","626","581487","0.0-4.0-1.41","true"
"633","ImagesCoins/10L90.png","190","test",".","image-keyboard-response","628","582623","0.0-4.0-1.42","true"
"840","ImagesCoins/10R105.png","190","test",".","image-keyboard-response","630","583966","0.0-4.0-1.43","true"
"756","ImagesCoins/10R90.png","188","test",",","image-keyboard-response","632","585224","0.0-4.0-1.44","true"
"873","ImagesCoins/10R95.png","188","test",",","image-keyboard-response","634","586599","0.0-4.0-1.45","true"
"1051","ImagesCoins/10R92.5.png","188","test",",","image-keyboard-response","636","588153","0.0-4.0-1.46","true"
"728","ImagesCoins/10R110.png","190","test",".","image-keyboard-response","638","589383","0.0-4.0-1.47","true"
"1315","ImagesCoins/10L105.png","188","test",",","image-keyboard-response","640","591201","0.0-4.0-1.48","true"
"1040","ImagesCoins/10R97.5.png","188","test",",","image-keyboard-response","642","592744","0.0-4.0-1.49","true"
"1267","ImagesCoins/10L107.5.png","188","test",",","image-keyboard-response","644","594514","0.0-4.0-1.50","true"
"1228","ImagesCoins/10R100.png","190","test",".","image-keyboard-response","646","596246","0.0-4.0-1.51","true"
"666","ImagesCoins/10L92.5.png","190","test",".","image-keyboard-response","648","597414","0.0-4.0-1.52","true"
"746","ImagesCoins/10R107.5.png","190","test",".","image-keyboard-response","650","598663","0.0-4.0-1.53","true"
"674","ImagesCoins/10L92.5.png","190","test",".","image-keyboard-response","652","599839","0.0-4.0-1.54","true"
"808","ImagesCoins/10L105.png","188","test",",","image-keyboard-response","654","601149","0.0-4.0-1.55","true"
"858","ImagesCoins/10L100.png","190","test",".","image-keyboard-response","656","602510","0.0-4.0-1.56","true"
"716","ImagesCoins/10L90.png","190","test",".","image-keyboard-response","658","603730","0.0-4.0-1.57","true"
"845","ImagesCoins/10L107.5.png","190","test",",","image-keyboard-response","660","605077","0.0-4.0-1.58","false"
"530","ImagesCoins/10R110.png","190","test",".","image-keyboard-response","662","606110","0.0-4.0-1.59","true"
"744","ImagesCoins/10R105.png","190","test",".","image-keyboard-response","664","607357","0.0-4.0-1.60","true"
"578","ImagesCoins/10L95.png","190","test",".","image-keyboard-response","666","608438","0.0-4.0-1.61","true"
"1481","ImagesCoins/10R90.png","188","test",",","image-keyboard-response","668","610422","0.0-4.0-1.62","true"
"771","ImagesCoins/10L97.5.png","190","test",".","image-keyboard-response","670","611696","0.0-4.0-1.63","true"
"635","ImagesCoins/10L110.png","188","test",",","image-keyboard-response","672","612834","0.0-4.0-1.64","true"
"1487","ImagesCoins/10R92.5.png","188","test",",","image-keyboard-response","674","614825","0.0-4.0-1.65","true"
"1306","ImagesCoins/10L102.5.png","190","test",",","image-keyboard-response","676","616633","0.0-4.0-1.66","false"
"690","ImagesCoins/10R107.5.png","190","test",".","image-keyboard-response","678","617827","0.0-4.0-1.67","true"
"709","ImagesCoins/10R100.png","190","test",".","image-keyboard-response","680","619038","0.0-4.0-1.68","true"
"1138","ImagesCoins/10R102.5.png","190","test",".","image-keyboard-response","682","620678","0.0-4.0-1.69","true"
"1098","ImagesCoins/10R95.png","188","test",",","image-keyboard-response","684","622279","0.0-4.0-1.70","true"
"980","ImagesCoins/10R97.5.png","188","test",",","image-keyboard-response","686","623763","0.0-4.0-1.71","true"
"1049","ImagesCoins/10R92.5.png","188","test",",","image-keyboard-response","688","625314","0.0-4.0-1.72","true"
"1112","ImagesCoins/10R105.png","190","test",".","image-keyboard-response","690","626929","0.0-4.0-1.73","true"
"1305","ImagesCoins/10L102.5.png","188","test",",","image-keyboard-response","692","628737","0.0-4.0-1.74","true"
"910","ImagesCoins/10L105.png","188","test",",","image-keyboard-response","694","630150","0.0-4.0-1.75","true"
"551","ImagesCoins/10L97.5.png","190","test",".","image-keyboard-response","696","631204","0.0-4.0-1.76","true"
"1224","ImagesCoins/10L92.5.png","190","test",".","image-keyboard-response","698","632930","0.0-4.0-1.77","true"
"823","ImagesCoins/10R102.5.png","190","test",".","image-keyboard-response","700","634256","0.0-4.0-1.78","true"
"1603","ImagesCoins/10R100.png","190","test",".","image-keyboard-response","702","636362","0.0-4.0-1.79","true"
"708","ImagesCoins/10L107.5.png","188","test",",","image-keyboard-response","704","637575","0.0-4.0-1.80","true"
"555","ImagesCoins/10L90.png","190","test",".","image-keyboard-response","706","638633","0.0-4.0-1.81","true"
"905","ImagesCoins/10R90.png","188","test",",","image-keyboard-response","708","640041","0.0-4.0-1.82","true"
"634","ImagesCoins/10L110.png","188","test",",","image-keyboard-response","710","641178","0.0-4.0-1.83","true"
"781","ImagesCoins/10L100.png","190","test",".","image-keyboard-response","712","642461","0.0-4.0-1.84","true"
"957","ImagesCoins/10L95.png","190","test",".","image-keyboard-response","714","643923","0.0-4.0-1.85","true"
"1294","ImagesCoins/10R97.5.png","188","test",",","image-keyboard-response","716","645720","0.0-4.0-1.86","true"
"698","ImagesCoins/10R110.png","190","test",".","image-keyboard-response","718","646920","0.0-4.0-1.87","true"
"529","ImagesCoins/10R107.5.png","190","test",".","image-keyboard-response","720","647952","0.0-4.0-1.88","true"
"815","ImagesCoins/10R95.png","188","test",",","image-keyboard-response","722","649271","0.0-4.0-1.89","true"
