rt;stimulus;key_press;test_part;correct_response;trial_type;trial_index;time_elapsed;internal_node_id;correct
60535;ImagesCoins/10L102.5.png;188;test;,;image-keyboard-response;4;117311;0.0-3.0-1.0;true
5458;ImagesCoins/10L105.png;188;test;,;image-keyboard-response;6;123273;0.0-3.0-1.1;true
8320;ImagesCoins/10R102.5.png;190;test;.;image-keyboard-response;8;132097;0.0-3.0-1.2;true
8081;ImagesCoins/10R97.5.png;188;test;,;image-keyboard-response;10;140681;0.0-3.0-1.3;true
4453;ImagesCoins/10L90.png;190;test;.;image-keyboard-response;12;145638;0.0-3.0-1.4;true
3921;ImagesCoins/10L110.png;188;test;,;image-keyboard-response;14;150061;0.0-3.0-1.5;true
2475;ImagesCoins/10L95.png;190;test;.;image-keyboard-response;16;153040;0.0-3.0-1.6;true
3967;ImagesCoins/10L107.5.png;188;test;,;image-keyboard-response;18;157509;0.0-3.0-1.7;true
3071;ImagesCoins/10R105.png;190;test;.;image-keyboard-response;20;161082;0.0-3.0-1.8;true
5665;ImagesCoins/10R100.png;190;test;.;image-keyboard-response;22;167250;0.0-3.0-1.9;true
6927;ImagesCoins/10L97.5.png;188;test;.;image-keyboard-response;24;174682;0.0-3.0-1.10;false
4658;ImagesCoins/10R90.png;188;test;,;image-keyboard-response;26;179844;0.0-3.0-1.11;true
4520;ImagesCoins/10L92.5.png;190;test;.;image-keyboard-response;28;184868;0.0-3.0-1.12;true
2249;ImagesCoins/10R95.png;188;test;,;image-keyboard-response;30;187623;0.0-3.0-1.13;true
3056;ImagesCoins/10R92.5.png;188;test;,;image-keyboard-response;32;191180;0.0-3.0-1.14;true
4800;ImagesCoins/10L100.png;190;test;.;image-keyboard-response;34;196483;0.0-3.0-1.15;true
6606;ImagesCoins/10R107.5.png;190;test;.;image-keyboard-response;36;203592;0.0-3.0-1.16;true
4435;ImagesCoins/10R110.png;190;test;.;image-keyboard-response;38;208530;0.0-3.0-1.17;true
3278;ImagesCoins/10R95.png;188;test;,;image-keyboard-response;40;212312;0.0-3.0-1.18;true
2042;ImagesCoins/10R90.png;188;test;,;image-keyboard-response;42;214857;0.0-3.0-1.19;true
7159;ImagesCoins/10R100.png;188;test;.;image-keyboard-response;44;222519;0.0-3.0-1.20;false
9771;ImagesCoins/10L95.png;190;test;.;image-keyboard-response;46;232796;0.0-3.0-1.21;true
2810;ImagesCoins/10R102.5.png;190;test;.;image-keyboard-response;48;236110;0.0-3.0-1.22;true
2664;ImagesCoins/10L100.png;188;test;.;image-keyboard-response;50;239280;0.0-3.0-1.23;false
2776;ImagesCoins/10R107.5.png;190;test;.;image-keyboard-response;52;242559;0.0-3.0-1.24;true
3579;ImagesCoins/10R105.png;190;test;.;image-keyboard-response;54;246640;0.0-3.0-1.25;true
3626;ImagesCoins/10L92.5.png;190;test;.;image-keyboard-response;56;250770;0.0-3.0-1.26;true
2053;ImagesCoins/10L102.5.png;188;test;,;image-keyboard-response;58;253325;0.0-3.0-1.27;true
2099;ImagesCoins/10L105.png;188;test;,;image-keyboard-response;60;255947;0.0-3.0-1.28;true
1894;ImagesCoins/10L90.png;190;test;.;image-keyboard-response;62;258343;0.0-3.0-1.29;true
3278;ImagesCoins/10L107.5.png;188;test;,;image-keyboard-response;64;262125;0.0-3.0-1.30;true
9749;ImagesCoins/10R97.5.png;190;test;,;image-keyboard-response;66;272376;0.0-3.0-1.31;false
1828;ImagesCoins/10L110.png;188;test;,;image-keyboard-response;68;274708;0.0-3.0-1.32;true
1808;ImagesCoins/10R110.png;190;test;.;image-keyboard-response;70;277021;0.0-3.0-1.33;true
2275;ImagesCoins/10R92.5.png;188;test;,;image-keyboard-response;72;279801;0.0-3.0-1.34;true
4365;ImagesCoins/10L97.5.png;188;test;.;image-keyboard-response;74;284670;0.0-3.0-1.35;false
2723;ImagesCoins/10R107.5.png;190;test;.;image-keyboard-response;76;287896;0.0-3.0-1.36;true
1543;ImagesCoins/10L97.5.png;190;test;.;image-keyboard-response;78;289941;0.0-3.0-1.37;true
1753;ImagesCoins/10L90.png;190;test;.;image-keyboard-response;80;292198;0.0-3.0-1.38;true
1500;ImagesCoins/10L107.5.png;188;test;,;image-keyboard-response;82;294199;0.0-3.0-1.39;true
4285;ImagesCoins/10R100.png;190;test;.;image-keyboard-response;84;298988;0.0-3.0-1.40;true
891;ImagesCoins/10R110.png;190;test;.;image-keyboard-response;86;300382;0.0-3.0-1.41;true
3027;ImagesCoins/10L105.png;188;test;,;image-keyboard-response;88;303913;0.0-3.0-1.42;true
9445;ImagesCoins/10R102.5.png;190;test;.;image-keyboard-response;90;313861;0.0-3.0-1.43;true
1181;ImagesCoins/10L110.png;188;test;,;image-keyboard-response;92;315546;0.0-3.0-1.44;true
2036;ImagesCoins/10L95.png;190;test;.;image-keyboard-response;94;318085;0.0-3.0-1.45;true
1543;ImagesCoins/10R97.5.png;188;test;,;image-keyboard-response;96;320130;0.0-3.0-1.46;true
1870;ImagesCoins/10R105.png;190;test;.;image-keyboard-response;98;322502;0.0-3.0-1.47;true
2347;ImagesCoins/10R92.5.png;188;test;,;image-keyboard-response;100;325355;0.0-3.0-1.48;true
1877;ImagesCoins/10R95.png;188;test;,;image-keyboard-response;102;327734;0.0-3.0-1.49;true
2302;ImagesCoins/10R90.png;188;test;,;image-keyboard-response;104;330540;0.0-3.0-1.50;true
1773;ImagesCoins/10L92.5.png;190;test;.;image-keyboard-response;106;332818;0.0-3.0-1.51;true
2633;ImagesCoins/10L100.png;188;test;.;image-keyboard-response;108;335952;0.0-3.0-1.52;false
1598;ImagesCoins/10L102.5.png;188;test;,;image-keyboard-response;110;338055;0.0-3.0-1.53;true
1192;ImagesCoins/10L102.5.png;188;test;,;image-keyboard-response;112;339750;0.0-3.0-1.54;true
967;ImagesCoins/10L110.png;188;test;,;image-keyboard-response;114;341220;0.0-3.0-1.55;true
2167;ImagesCoins/10R102.5.png;190;test;.;image-keyboard-response;116;343890;0.0-3.0-1.56;true
947;ImagesCoins/10R110.png;190;test;.;image-keyboard-response;118;345342;0.0-3.0-1.57;true
1981;ImagesCoins/10L92.5.png;190;test;.;image-keyboard-response;120;347825;0.0-3.0-1.58;true
4562;ImagesCoins/10R95.png;188;test;,;image-keyboard-response;122;352890;0.0-3.0-1.59;true
1923;ImagesCoins/10R105.png;190;test;.;image-keyboard-response;124;355317;0.0-3.0-1.60;true
1873;ImagesCoins/10L107.5.png;188;test;,;image-keyboard-response;126;357694;0.0-3.0-1.61;true
4401;ImagesCoins/10L97.5.png;188;test;.;image-keyboard-response;128;362597;0.0-3.0-1.62;false
2178;ImagesCoins/10R107.5.png;190;test;.;image-keyboard-response;130;365281;0.0-3.0-1.63;true
6119;ImagesCoins/10R97.5.png;188;test;,;image-keyboard-response;132;371903;0.0-3.0-1.64;true
1232;ImagesCoins/10L90.png;190;test;.;image-keyboard-response;134;373637;0.0-3.0-1.65;true
2038;ImagesCoins/10R90.png;188;test;,;image-keyboard-response;136;376178;0.0-3.0-1.66;true
2230;ImagesCoins/10R100.png;190;test;.;image-keyboard-response;138;378912;0.0-3.0-1.67;true
1247;ImagesCoins/10L95.png;190;test;.;image-keyboard-response;140;380662;0.0-3.0-1.68;true
2241;ImagesCoins/10L105.png;188;test;,;image-keyboard-response;142;383405;0.0-3.0-1.69;true
3735;ImagesCoins/10L100.png;190;test;.;image-keyboard-response;144;387644;0.0-3.0-1.70;true
1836;ImagesCoins/10R92.5.png;188;test;,;image-keyboard-response;146;389985;0.0-3.0-1.71;true
1188;ImagesCoins/10L110.png;188;test;,;image-keyboard-response;148;391678;0.0-3.0-1.72;true
1573;ImagesCoins/10R90.png;188;test;,;image-keyboard-response;150;393753;0.0-3.0-1.73;true
2668;ImagesCoins/10R102.5.png;190;test;.;image-keyboard-response;152;396924;0.0-3.0-1.74;true
1675;ImagesCoins/10R95.png;188;test;,;image-keyboard-response;154;399101;0.0-3.0-1.75;true
1207;ImagesCoins/10L102.5.png;188;test;,;image-keyboard-response;156;400813;0.0-3.0-1.76;true
2254;ImagesCoins/10L100.png;188;test;.;image-keyboard-response;158;403570;0.0-3.0-1.77;false
819;ImagesCoins/10L107.5.png;188;test;,;image-keyboard-response;160;404894;0.0-3.0-1.78;true
2105;ImagesCoins/10R97.5.png;188;test;,;image-keyboard-response;162;407500;0.0-3.0-1.79;true
1786;ImagesCoins/10L90.png;190;test;.;image-keyboard-response;164;409794;0.0-3.0-1.80;true
1557;ImagesCoins/10R100.png;190;test;.;image-keyboard-response;166;411855;0.0-3.0-1.81;true
1521;ImagesCoins/10L97.5.png;190;test;.;image-keyboard-response;168;413880;0.0-3.0-1.82;true
916;ImagesCoins/10R105.png;190;test;.;image-keyboard-response;170;415301;0.0-3.0-1.83;true
1326;ImagesCoins/10L105.png;188;test;,;image-keyboard-response;172;417131;0.0-3.0-1.84;true
1816;ImagesCoins/10R107.5.png;190;test;.;image-keyboard-response;174;419448;0.0-3.0-1.85;true
2497;ImagesCoins/10L92.5.png;190;test;.;image-keyboard-response;176;422448;0.0-3.0-1.86;true
2393;ImagesCoins/10L95.png;190;test;.;image-keyboard-response;178;425344;0.0-3.0-1.87;true
2148;ImagesCoins/10R92.5.png;188;test;,;image-keyboard-response;180;427995;0.0-3.0-1.88;true
1332;ImagesCoins/10R110.png;190;test;.;image-keyboard-response;182;429828;0.0-3.0-1.89;true
6918;ImagesSoccer/VL100.png;188;test;.;image-keyboard-response;184;437249;0.0-4.0-1.0;false
2566;ImagesTennis/TR95.png;188;test;,;image-keyboard-response;186;440317;0.0-4.0-1.1;true
3229;ImagesSoccer/VR105.png;190;test;.;image-keyboard-response;188;444048;0.0-4.0-1.2;true
1995;ImagesSoccer/VR90.png;188;test;,;image-keyboard-response;190;446546;0.0-4.0-1.3;true
3370;ImagesTennis/TL107.5.png;188;test;,;image-keyboard-response;192;450420;0.0-4.0-1.4;true
2259;ImagesSoccer/VL90.png;190;test;.;image-keyboard-response;194;453182;0.0-4.0-1.5;true
3504;ImagesDirect/VL107.5.png;188;test;,;image-keyboard-response;196;457188;0.0-4.0-1.6;true
3482;ImagesDirect/VR92.5.png;188;test;,;image-keyboard-response;198;461174;0.0-4.0-1.7;true
1894;ImagesSoccer/VL92.5.png;190;test;.;image-keyboard-response;200;463571;0.0-4.0-1.8;true
1365;ImagesSoccer/VR107.5.png;190;test;.;image-keyboard-response;202;465441;0.0-4.0-1.9;true
1782;ImagesDirect/VL95.png;190;test;.;image-keyboard-response;204;467726;0.0-4.0-1.10;true
2263;ImagesDirect/VR90.png;188;test;,;image-keyboard-response;206;470492;0.0-4.0-1.11;true
1323;ImagesDirect/VR107.5.png;190;test;.;image-keyboard-response;208;472320;0.0-4.0-1.12;true
1361;ImagesSoccer/VR102.5.png;190;test;.;image-keyboard-response;210;474184;0.0-4.0-1.13;true
6024;ImagesDirect/VR95.png;188;test;,;image-keyboard-response;212;480712;0.0-4.0-1.14;true
1203;ImagesSoccer/VL105.png;188;test;,;image-keyboard-response;214;482417;0.0-4.0-1.15;true
2101;ImagesDirect/VL97.5.png;188;test;.;image-keyboard-response;216;485020;0.0-4.0-1.16;false
1599;ImagesDirect/VL90.png;190;test;.;image-keyboard-response;218;487122;0.0-4.0-1.17;true
1009;ImagesSoccer/VR100.png;190;test;.;image-keyboard-response;220;488634;0.0-4.0-1.18;true
1906;ImagesDirect/VR97.5.png;190;test;,;image-keyboard-response;222;491042;0.0-4.0-1.19;false
1263;ImagesSoccer/VL102.5.png;188;test;,;image-keyboard-response;224;492808;0.0-4.0-1.20;true
2431;ImagesTennis/TR90.png;188;test;,;image-keyboard-response;226;495742;0.0-4.0-1.21;true
2807;ImagesTennis/TR102.5.png;188;test;.;image-keyboard-response;228;499054;0.0-4.0-1.22;false
8264;ImagesSoccer/VL97.5.png;188;test;.;image-keyboard-response;230;507821;0.0-4.0-1.23;false
1802;ImagesTennis/TL90.png;190;test;.;image-keyboard-response;232;510126;0.0-4.0-1.24;true
4179;ImagesSoccer/VR97.5.png;188;test;,;image-keyboard-response;234;514810;0.0-4.0-1.25;true
1357;ImagesTennis/TR92.5.png;188;test;,;image-keyboard-response;236;516672;0.0-4.0-1.26;true
1329;ImagesTennis/TL105.png;190;test;,;image-keyboard-response;238;518504;0.0-4.0-1.27;false
1994;ImagesSoccer/VL95.png;190;test;.;image-keyboard-response;240;521002;0.0-4.0-1.28;true
978;ImagesDirect/VR110.png;190;test;.;image-keyboard-response;242;522484;0.0-4.0-1.29;true
1493;ImagesTennis/TL92.5.png;190;test;.;image-keyboard-response;244;524481;0.0-4.0-1.30;true
1406;ImagesDirect/VL110.png;188;test;,;image-keyboard-response;246;526391;0.0-4.0-1.31;true
1660;ImagesDirect/VL100.png;188;test;.;image-keyboard-response;248;528555;0.0-4.0-1.32;false
2582;ImagesTennis/TL100.png;190;test;.;image-keyboard-response;250;531641;0.0-4.0-1.33;true
1357;ImagesTennis/TL95.png;190;test;.;image-keyboard-response;252;533502;0.0-4.0-1.34;true
3375;ImagesTennis/TR107.5.png;190;test;.;image-keyboard-response;254;537382;0.0-4.0-1.35;true
2205;ImagesDirect/VR102.5.png;190;test;.;image-keyboard-response;256;540091;0.0-4.0-1.36;true
1233;ImagesDirect/VL105.png;188;test;,;image-keyboard-response;258;541827;0.0-4.0-1.37;true
1751;ImagesDirect/VR100.png;190;test;.;image-keyboard-response;260;544080;0.0-4.0-1.38;true
2234;ImagesSoccer/VR95.png;188;test;,;image-keyboard-response;262;546817;0.0-4.0-1.39;true
1225;ImagesTennis/TR100.png;188;test;.;image-keyboard-response;264;548548;0.0-4.0-1.40;false
3578;ImagesTennis/TL102.5.png;190;test;,;image-keyboard-response;266;552629;0.0-4.0-1.41;false
1757;ImagesTennis/TR110.png;188;test;.;image-keyboard-response;268;554889;0.0-4.0-1.42;false
3132;ImagesTennis/TL110.png;188;test;,;image-keyboard-response;270;558522;0.0-4.0-1.43;true
1986;ImagesDirect/VR105.png;190;test;.;image-keyboard-response;272;561011;0.0-4.0-1.44;true
1542;ImagesDirect/VL102.5.png;188;test;,;image-keyboard-response;274;563056;0.0-4.0-1.45;true
1637;ImagesTennis/TR97.5.png;188;test;,;image-keyboard-response;276;565195;0.0-4.0-1.46;true
6293;ImagesDirect/VL92.5.png;188;test;.;image-keyboard-response;278;571990;0.0-4.0-1.47;false
831;ImagesSoccer/VL107.5.png;188;test;,;image-keyboard-response;280;573324;0.0-4.0-1.48;true
1652;ImagesTennis/TR105.png;188;test;.;image-keyboard-response;282;575479;0.0-4.0-1.49;false
1399;ImagesSoccer/VR110.png;190;test;.;image-keyboard-response;284;577382;0.0-4.0-1.50;true
1421;ImagesSoccer/VR92.5.png;188;test;,;image-keyboard-response;286;579306;0.0-4.0-1.51;true
945;ImagesSoccer/VL110.png;188;test;,;image-keyboard-response;288;580754;0.0-4.0-1.52;true
2124;ImagesTennis/TL97.5.png;190;test;.;image-keyboard-response;290;583381;0.0-4.0-1.53;true
1191;ImagesDirect/VR105.png;190;test;.;image-keyboard-response;292;585075;0.0-4.0-1.54;true
2201;ImagesDirect/VL95.png;188;test;.;image-keyboard-response;294;587779;0.0-4.0-1.55;false
1460;ImagesTennis/TL105.png;188;test;,;image-keyboard-response;296;589744;0.0-4.0-1.56;true
3349;ImagesSoccer/VR97.5.png;188;test;,;image-keyboard-response;298;593597;0.0-4.0-1.57;true
1896;ImagesTennis/TL100.png;190;test;.;image-keyboard-response;300;595998;0.0-4.0-1.58;true
1233;ImagesSoccer/VL105.png;188;test;,;image-keyboard-response;302;597735;0.0-4.0-1.59;true
1662;ImagesTennis/TR90.png;188;test;,;image-keyboard-response;304;599900;0.0-4.0-1.60;true
1218;ImagesTennis/TR107.5.png;190;test;.;image-keyboard-response;306;601623;0.0-4.0-1.61;true
1234;ImagesTennis/TL110.png;188;test;,;image-keyboard-response;308;603361;0.0-4.0-1.62;true
1555;ImagesTennis/TR97.5.png;188;test;,;image-keyboard-response;310;605420;0.0-4.0-1.63;true
2798;ImagesDirect/VR95.png;188;test;,;image-keyboard-response;312;608720;0.0-4.0-1.64;true
1775;ImagesTennis/TL92.5.png;190;test;.;image-keyboard-response;314;610997;0.0-4.0-1.65;true
2244;ImagesSoccer/VR102.5.png;190;test;.;image-keyboard-response;316;613745;0.0-4.0-1.66;true
2585;ImagesTennis/TR102.5.png;188;test;.;image-keyboard-response;318;616834;0.0-4.0-1.67;false
1469;ImagesTennis/TL97.5.png;190;test;.;image-keyboard-response;320;618809;0.0-4.0-1.68;true
977;ImagesDirect/VL110.png;188;test;,;image-keyboard-response;322;620290;0.0-4.0-1.69;true
1515;ImagesTennis/TR95.png;188;test;,;image-keyboard-response;324;622307;0.0-4.0-1.70;true
2184;ImagesDirect/VR102.5.png;190;test;.;image-keyboard-response;326;624995;0.0-4.0-1.71;true
1043;ImagesDirect/VL107.5.png;188;test;,;image-keyboard-response;328;626542;0.0-4.0-1.72;true
1835;ImagesSoccer/VL107.5.png;188;test;,;image-keyboard-response;330;628880;0.0-4.0-1.73;true
1472;ImagesSoccer/VR110.png;190;test;.;image-keyboard-response;332;630856;0.0-4.0-1.74;true
3652;ImagesDirect/VR92.5.png;188;test;,;image-keyboard-response;334;635014;0.0-4.0-1.75;true
2016;ImagesSoccer/VL92.5.png;190;test;.;image-keyboard-response;336;637535;0.0-4.0-1.76;true
965;ImagesTennis/TL95.png;190;test;.;image-keyboard-response;338;639005;0.0-4.0-1.77;true
1298;ImagesSoccer/VL110.png;188;test;,;image-keyboard-response;340;640808;0.0-4.0-1.78;true
952;ImagesDirect/VL105.png;188;test;,;image-keyboard-response;342;642263;0.0-4.0-1.79;true
3043;ImagesTennis/TL102.5.png;188;test;,;image-keyboard-response;344;645810;0.0-4.0-1.80;true
2910;ImagesDirect/VL90.png;190;test;.;image-keyboard-response;346;649225;0.0-4.0-1.81;true
1367;ImagesSoccer/VR107.5.png;190;test;.;image-keyboard-response;348;651096;0.0-4.0-1.82;true
2130;ImagesSoccer/VL102.5.png;188;test;,;image-keyboard-response;350;653731;0.0-4.0-1.83;true
3991;ImagesDirect/VR97.5.png;190;test;,;image-keyboard-response;352;658226;0.0-4.0-1.84;false
1221;ImagesDirect/VL97.5.png;188;test;.;image-keyboard-response;354;659951;0.0-4.0-1.85;false
2079;ImagesDirect/VR90.png;188;test;,;image-keyboard-response;356;662535;0.0-4.0-1.86;true
1114;ImagesTennis/TL90.png;190;test;.;image-keyboard-response;358;664151;0.0-4.0-1.87;true
1684;ImagesSoccer/VL100.png;190;test;.;image-keyboard-response;360;666340;0.0-4.0-1.88;true
1029;ImagesDirect/VR100.png;190;test;.;image-keyboard-response;362;667873;0.0-4.0-1.89;true
1466;ImagesDirect/VL100.png;188;test;.;image-keyboard-response;364;669844;0.0-4.0-1.90;false
1255;ImagesSoccer/VR92.5.png;188;test;,;image-keyboard-response;366;671603;0.0-4.0-1.91;true
1177;ImagesTennis/TR92.5.png;188;test;,;image-keyboard-response;368;673285;0.0-4.0-1.92;true
1635;ImagesSoccer/VL90.png;190;test;.;image-keyboard-response;370;675424;0.0-4.0-1.93;true
1255;ImagesSoccer/VL97.5.png;190;test;.;image-keyboard-response;372;677184;0.0-4.0-1.94;true
1061;ImagesDirect/VR110.png;190;test;.;image-keyboard-response;374;678748;0.0-4.0-1.95;true
1727;ImagesSoccer/VR95.png;188;test;,;image-keyboard-response;376;680977;0.0-4.0-1.96;true
2114;ImagesSoccer/VL95.png;190;test;.;image-keyboard-response;378;683595;0.0-4.0-1.97;true
1167;ImagesTennis/TR100.png;188;test;.;image-keyboard-response;380;685265;0.0-4.0-1.98;false
1102;ImagesSoccer/VR105.png;190;test;.;image-keyboard-response;382;686870;0.0-4.0-1.99;true
5525;ImagesTennis/TR105.png;188;test;.;image-keyboard-response;384;692900;0.0-4.0-1.100;false
1743;ImagesTennis/TL107.5.png;188;test;,;image-keyboard-response;386;695148;0.0-4.0-1.101;true
1741;ImagesTennis/TR110.png;190;test;.;image-keyboard-response;388;697393;0.0-4.0-1.102;true
1530;ImagesDirect/VL102.5.png;188;test;,;image-keyboard-response;390;699426;0.0-4.0-1.103;true
2503;ImagesSoccer/VR100.png;188;test;.;image-keyboard-response;392;702432;0.0-4.0-1.104;false
2210;ImagesDirect/VL92.5.png;188;test;.;image-keyboard-response;394;705149;0.0-4.0-1.105;false
1444;ImagesSoccer/VR90.png;188;test;,;image-keyboard-response;396;707097;0.0-4.0-1.106;true
1035;ImagesDirect/VR107.5.png;190;test;.;image-keyboard-response;398;708635;0.0-4.0-1.107;true
1081;ImagesDirect/VR102.5.png;190;test;.;image-keyboard-response;400;710218;0.0-4.0-1.108;true
1689;ImagesTennis/TL97.5.png;190;test;.;image-keyboard-response;402;712411;0.0-4.0-1.109;true
1715;ImagesDirect/VL97.5.png;188;test;.;image-keyboard-response;404;714630;0.0-4.0-1.110;false
1832;ImagesSoccer/VR97.5.png;188;test;,;image-keyboard-response;406;716967;0.0-4.0-1.111;true
2038;ImagesDirect/VL90.png;188;test;.;image-keyboard-response;408;719508;0.0-4.0-1.112;false
3866;ImagesTennis/TR105.png;188;test;.;image-keyboard-response;410;723878;0.0-4.0-1.113;false
1307;ImagesDirect/VL105.png;188;test;,;image-keyboard-response;412;725691;0.0-4.0-1.114;true
1334;ImagesDirect/VR105.png;190;test;.;image-keyboard-response;414;727528;0.0-4.0-1.115;true
1321;ImagesDirect/VR92.5.png;188;test;,;image-keyboard-response;416;729353;0.0-4.0-1.116;true
1037;ImagesDirect/VL107.5.png;188;test;,;image-keyboard-response;418;730893;0.0-4.0-1.117;true
1777;ImagesSoccer/VR100.png;190;test;.;image-keyboard-response;420;733174;0.0-4.0-1.118;true
3955;ImagesSoccer/VR95.png;188;test;,;image-keyboard-response;422;737632;0.0-4.0-1.119;true
1049;ImagesTennis/TR107.5.png;188;test;.;image-keyboard-response;424;739187;0.0-4.0-1.120;false
1401;ImagesDirect/VL102.5.png;188;test;,;image-keyboard-response;426;741092;0.0-4.0-1.121;true
1097;ImagesDirect/VR107.5.png;190;test;.;image-keyboard-response;428;742692;0.0-4.0-1.122;true
1109;ImagesSoccer/VL107.5.png;188;test;,;image-keyboard-response;430;744304;0.0-4.0-1.123;true
1864;ImagesSoccer/VR90.png;188;test;,;image-keyboard-response;432;746670;0.0-4.0-1.124;true
1685;ImagesTennis/TR110.png;190;test;.;image-keyboard-response;434;748857;0.0-4.0-1.125;true
1159;ImagesDirect/VR100.png;190;test;.;image-keyboard-response;436;750518;0.0-4.0-1.126;true
2758;ImagesSoccer/VL102.5.png;188;test;,;image-keyboard-response;438;753777;0.0-4.0-1.127;true
1460;ImagesTennis/TR97.5.png;188;test;,;image-keyboard-response;440;755740;0.0-4.0-1.128;true
1469;ImagesTennis/TL100.png;190;test;.;image-keyboard-response;442;757713;0.0-4.0-1.129;true
1117;ImagesSoccer/VL97.5.png;190;test;.;image-keyboard-response;444;759333;0.0-4.0-1.130;true
1561;ImagesSoccer/VL95.png;190;test;.;image-keyboard-response;446;761398;0.0-4.0-1.131;true
1006;ImagesSoccer/VL110.png;188;test;,;image-keyboard-response;448;762908;0.0-4.0-1.132;true
2132;ImagesTennis/TL107.5.png;188;test;,;image-keyboard-response;450;765543;0.0-4.0-1.133;true
2668;ImagesSoccer/VR92.5.png;188;test;,;image-keyboard-response;452;768714;0.0-4.0-1.134;true
1850;ImagesSoccer/VL105.png;188;test;,;image-keyboard-response;454;771068;0.0-4.0-1.135;true
2931;ImagesTennis/TL92.5.png;190;test;.;image-keyboard-response;456;774501;0.0-4.0-1.136;true
910;ImagesTennis/TL90.png;190;test;.;image-keyboard-response;458;775915;0.0-4.0-1.137;true
1365;ImagesTennis/TL95.png;190;test;.;image-keyboard-response;460;777786;0.0-4.0-1.138;true
4679;ImagesTennis/TL102.5.png;188;test;,;image-keyboard-response;462;782969;0.0-4.0-1.139;true
1295;ImagesTennis/TR100.png;188;test;.;image-keyboard-response;464;784768;0.0-4.0-1.140;false
982;ImagesTennis/TR92.5.png;188;test;,;image-keyboard-response;466;786253;0.0-4.0-1.141;true
1509;ImagesSoccer/VR107.5.png;190;test;.;image-keyboard-response;468;788267;0.0-4.0-1.142;true
1924;ImagesDirect/VR90.png;188;test;,;image-keyboard-response;470;790696;0.0-4.0-1.143;true
680;ImagesDirect/VL110.png;188;test;,;image-keyboard-response;472;791879;0.0-4.0-1.144;true
1394;ImagesSoccer/VL90.png;190;test;.;image-keyboard-response;474;793777;0.0-4.0-1.145;true
911;ImagesSoccer/VL92.5.png;190;test;.;image-keyboard-response;476;795192;0.0-4.0-1.146;true
1379;ImagesTennis/TR95.png;188;test;,;image-keyboard-response;478;797074;0.0-4.0-1.147;true
2310;ImagesTennis/TL105.png;190;test;,;image-keyboard-response;480;799888;0.0-4.0-1.148;false
2109;ImagesTennis/TR102.5.png;188;test;.;image-keyboard-response;482;802499;0.0-4.0-1.149;false
2114;ImagesSoccer/VL100.png;188;test;.;image-keyboard-response;484;805117;0.0-4.0-1.150;false
1396;ImagesDirect/VR97.5.png;190;test;,;image-keyboard-response;486;807017;0.0-4.0-1.151;false
2744;ImagesDirect/VL100.png;188;test;.;image-keyboard-response;488;810266;0.0-4.0-1.152;false
2440;ImagesDirect/VL95.png;188;test;.;image-keyboard-response;490;813209;0.0-4.0-1.153;false
1760;ImagesSoccer/VR102.5.png;190;test;.;image-keyboard-response;492;815472;0.0-4.0-1.154;true
1558;ImagesDirect/VR95.png;190;test;,;image-keyboard-response;494;817534;0.0-4.0-1.155;false
930;ImagesSoccer/VR110.png;190;test;.;image-keyboard-response;496;818969;0.0-4.0-1.156;true
1141;ImagesDirect/VR110.png;190;test;.;image-keyboard-response;498;820613;0.0-4.0-1.157;true
1286;ImagesTennis/TR90.png;188;test;,;image-keyboard-response;500;822403;0.0-4.0-1.158;true
8714;ImagesDirect/VL92.5.png;190;test;.;image-keyboard-response;502;831621;0.0-4.0-1.159;true
936;ImagesSoccer/VR105.png;190;test;.;image-keyboard-response;504;833062;0.0-4.0-1.160;true
1372;ImagesTennis/TL110.png;188;test;,;image-keyboard-response;506;834938;0.0-4.0-1.161;true
4260;ImagesDirect/VL90.png;190;test;.;image-keyboard-response;508;839702;0.0-4.0-1.162;true
1903;ImagesSoccer/VR100.png;190;test;.;image-keyboard-response;510;842109;0.0-4.0-1.163;true
1080;ImagesDirect/VL107.5.png;188;test;,;image-keyboard-response;512;843693;0.0-4.0-1.164;true
770;ImagesDirect/VL102.5.png;188;test;,;image-keyboard-response;514;844966;0.0-4.0-1.165;true
2012;ImagesTennis/TR110.png;190;test;.;image-keyboard-response;516;847482;0.0-4.0-1.166;true
3282;ImagesSoccer/VL102.5.png;188;test;,;image-keyboard-response;518;851267;0.0-4.0-1.167;true
1917;ImagesTennis/TL107.5.png;188;test;,;image-keyboard-response;520;853690;0.0-4.0-1.168;true
2046;ImagesSoccer/VL97.5.png;188;test;.;image-keyboard-response;522;856239;0.0-4.0-1.169;false
813;ImagesDirect/VL105.png;188;test;,;image-keyboard-response;524;857557;0.0-4.0-1.170;true
1702;ImagesTennis/TL102.5.png;190;test;,;image-keyboard-response;526;859764;0.0-4.0-1.171;false
1299;ImagesSoccer/VR90.png;188;test;,;image-keyboard-response;528;861565;0.0-4.0-1.172;true
1425;ImagesDirect/VR97.5.png;190;test;,;image-keyboard-response;530;863492;0.0-4.0-1.173;false
11509;ImagesDirect/VR90.png;188;test;,;image-keyboard-response;532;875502;0.0-4.0-1.174;true
1884;ImagesSoccer/VR102.5.png;190;test;.;image-keyboard-response;534;877888;0.0-4.0-1.175;true
1926;ImagesSoccer/VL100.png;188;test;.;image-keyboard-response;536;880315;0.0-4.0-1.176;false
1146;ImagesSoccer/VR95.png;188;test;,;image-keyboard-response;538;881964;0.0-4.0-1.177;true
1220;ImagesDirect/VR102.5.png;190;test;.;image-keyboard-response;540;883686;0.0-4.0-1.178;true
990;ImagesSoccer/VL110.png;188;test;,;image-keyboard-response;542;885179;0.0-4.0-1.179;true
1194;ImagesTennis/TL110.png;188;test;,;image-keyboard-response;544;886874;0.0-4.0-1.180;true
2660;ImagesSoccer/VL107.5.png;188;test;,;image-keyboard-response;546;890036;0.0-4.0-1.181;true
1769;ImagesDirect/VL100.png;188;test;.;image-keyboard-response;548;892308;0.0-4.0-1.182;false
3215;ImagesDirect/VL95.png;188;test;.;image-keyboard-response;550;896026;0.0-4.0-1.183;false
1608;ImagesTennis/TL97.5.png;190;test;.;image-keyboard-response;552;898139;0.0-4.0-1.184;true
1070;ImagesTennis/TR100.png;188;test;.;image-keyboard-response;554;899713;0.0-4.0-1.185;false
1889;ImagesDirect/VR95.png;190;test;,;image-keyboard-response;556;902106;0.0-4.0-1.186;false
1154;ImagesSoccer/VR105.png;190;test;.;image-keyboard-response;558;903763;0.0-4.0-1.187;true
1166;ImagesTennis/TR107.5.png;190;test;.;image-keyboard-response;560;905434;0.0-4.0-1.188;true
1154;ImagesSoccer/VL105.png;188;test;,;image-keyboard-response;562;907092;0.0-4.0-1.189;true
1947;ImagesSoccer/VR110.png;190;test;.;image-keyboard-response;564;909541;0.0-4.0-1.190;true
1671;ImagesTennis/TR90.png;188;test;,;image-keyboard-response;566;911716;0.0-4.0-1.191;true
3262;ImagesSoccer/VL92.5.png;190;test;.;image-keyboard-response;568;915482;0.0-4.0-1.192;true
1171;ImagesDirect/VR100.png;190;test;.;image-keyboard-response;570;917158;0.0-4.0-1.193;true
802;ImagesDirect/VR107.5.png;190;test;.;image-keyboard-response;572;918463;0.0-4.0-1.194;true
1266;ImagesTennis/TR95.png;188;test;,;image-keyboard-response;574;920234;0.0-4.0-1.195;true
1113;ImagesTennis/TR102.5.png;188;test;.;image-keyboard-response;576;921850;0.0-4.0-1.196;false
1227;ImagesDirect/VL92.5.png;188;test;.;image-keyboard-response;578;923582;0.0-4.0-1.197;false
1155;ImagesSoccer/VR107.5.png;190;test;.;image-keyboard-response;580;925240;0.0-4.0-1.198;true
929;ImagesDirect/VL110.png;188;test;,;image-keyboard-response;582;926673;0.0-4.0-1.199;true
1635;ImagesSoccer/VL90.png;190;test;.;image-keyboard-response;584;928810;0.0-4.0-1.200;true
671;ImagesTennis/TR97.5.png;188;test;,;image-keyboard-response;586;929986;0.0-4.0-1.201;true
4468;ImagesTennis/TL105.png;188;test;,;image-keyboard-response;588;934957;0.0-4.0-1.202;true
1042;ImagesDirect/VR110.png;190;test;.;image-keyboard-response;590;936505;0.0-4.0-1.203;true
1208;ImagesTennis/TR105.png;190;test;.;image-keyboard-response;592;938218;0.0-4.0-1.204;true
1089;ImagesTennis/TR92.5.png;188;test;,;image-keyboard-response;594;939810;0.0-4.0-1.205;true
2054;ImagesSoccer/VR97.5.png;188;test;,;image-keyboard-response;596;942370;0.0-4.0-1.206;true
1132;ImagesTennis/TL90.png;190;test;.;image-keyboard-response;598;944007;0.0-4.0-1.207;true
901;ImagesDirect/VR105.png;190;test;.;image-keyboard-response;600;945414;0.0-4.0-1.208;true
2100;ImagesSoccer/VL95.png;190;test;.;image-keyboard-response;602;948018;0.0-4.0-1.209;true
1118;ImagesDirect/VL97.5.png;188;test;.;image-keyboard-response;604;949640;0.0-4.0-1.210;false
2767;ImagesDirect/VR92.5.png;188;test;,;image-keyboard-response;606;952911;0.0-4.0-1.211;true
1266;ImagesTennis/TL92.5.png;190;test;.;image-keyboard-response;608;954681;0.0-4.0-1.212;true
1769;ImagesTennis/TL100.png;190;test;.;image-keyboard-response;610;956952;0.0-4.0-1.213;true
1106;ImagesTennis/TL95.png;190;test;.;image-keyboard-response;612;958562;0.0-4.0-1.214;true
1246;ImagesSoccer/VR92.5.png;188;test;,;image-keyboard-response;614;960316;0.0-4.0-1.215;true
1304;ImagesSoccer/VL92.5.png;190;test;.;image-keyboard-response;616;962124;0.0-4.0-1.216;true
1524;ImagesSoccer/VL100.png;188;test;.;image-keyboard-response;618;964151;0.0-4.0-1.217;false
657;ImagesDirect/VL110.png;188;test;,;image-keyboard-response;620;965314;0.0-4.0-1.218;true
1700;ImagesDirect/VR100.png;190;test;.;image-keyboard-response;622;967518;0.0-4.0-1.219;true
1071;ImagesSoccer/VR92.5.png;188;test;,;image-keyboard-response;624;969092;0.0-4.0-1.220;true
1122;ImagesSoccer/VL95.png;190;test;.;image-keyboard-response;626;970718;0.0-4.0-1.221;true
926;ImagesTennis/TR95.png;188;test;,;image-keyboard-response;628;972146;0.0-4.0-1.222;true
1621;ImagesSoccer/VL105.png;188;test;,;image-keyboard-response;630;974271;0.0-4.0-1.223;true
1979;ImagesDirect/VR102.5.png;190;test;.;image-keyboard-response;632;976754;0.0-4.0-1.224;true
1151;ImagesSoccer/VR90.png;188;test;,;image-keyboard-response;634;978409;0.0-4.0-1.225;true
989;ImagesTennis/TL92.5.png;190;test;.;image-keyboard-response;636;979901;0.0-4.0-1.226;true
1264;ImagesDirect/VL105.png;188;test;,;image-keyboard-response;638;981669;0.0-4.0-1.227;true
2547;ImagesDirect/VL90.png;190;test;.;image-keyboard-response;640;984719;0.0-4.0-1.228;true
2598;ImagesSoccer/VR95.png;188;test;,;image-keyboard-response;642;987820;0.0-4.0-1.229;true
2554;ImagesTennis/TR92.5.png;188;test;,;image-keyboard-response;644;990878;0.0-4.0-1.230;true
1034;ImagesDirect/VR105.png;190;test;.;image-keyboard-response;646;992416;0.0-4.0-1.231;true
763;ImagesTennis/TR90.png;188;test;,;image-keyboard-response;648;993684;0.0-4.0-1.232;true
5461;ImagesTennis/TL105.png;188;test;,;image-keyboard-response;650;999647;0.0-4.0-1.233;true
1783;ImagesDirect/VR92.5.png;190;test;,;image-keyboard-response;652;1001934;0.0-4.0-1.234;false
4609;ImagesDirect/VL92.5.png;188;test;.;image-keyboard-response;654;1007047;0.0-4.0-1.235;false
905;ImagesDirect/VL102.5.png;188;test;,;image-keyboard-response;656;1008457;0.0-4.0-1.236;true
1483;ImagesSoccer/VL97.5.png;188;test;.;image-keyboard-response;658;1010444;0.0-4.0-1.237;false
1012;ImagesDirect/VL95.png;188;test;.;image-keyboard-response;660;1011959;0.0-4.0-1.238;false
2377;ImagesSoccer/VR100.png;188;test;.;image-keyboard-response;662;1014840;0.0-4.0-1.239;false
709;ImagesSoccer/VL107.5.png;188;test;,;image-keyboard-response;664;1016054;0.0-4.0-1.240;true
2823;ImagesSoccer/VR102.5.png;190;test;.;image-keyboard-response;666;1019382;0.0-4.0-1.241;true
1859;ImagesDirect/VL97.5.png;188;test;.;image-keyboard-response;668;1021744;0.0-4.0-1.242;false
1548;ImagesTennis/TR110.png;188;test;.;image-keyboard-response;670;1023797;0.0-4.0-1.243;false
2195;ImagesSoccer/VL90.png;190;test;.;image-keyboard-response;672;1026496;0.0-4.0-1.244;true
1852;ImagesDirect/VL100.png;188;test;.;image-keyboard-response;674;1028851;0.0-4.0-1.245;false
1613;ImagesDirect/VR90.png;188;test;,;image-keyboard-response;676;1030969;0.0-4.0-1.246;true
869;ImagesTennis/TL110.png;188;test;,;image-keyboard-response;678;1032343;0.0-4.0-1.247;true
2504;ImagesTennis/TR107.5.png;190;test;.;image-keyboard-response;680;1035351;0.0-4.0-1.248;true
2757;ImagesTennis/TL100.png;190;test;.;image-keyboard-response;682;1038612;0.0-4.0-1.249;true
975;ImagesTennis/TL95.png;190;test;.;image-keyboard-response;684;1040091;0.0-4.0-1.250;true
1007;ImagesSoccer/VR107.5.png;190;test;.;image-keyboard-response;686;1041600;0.0-4.0-1.251;true
1133;ImagesTennis/TR100.png;188;test;.;image-keyboard-response;688;1043236;0.0-4.0-1.252;false
967;ImagesDirect/VR110.png;190;test;.;image-keyboard-response;690;1044709;0.0-4.0-1.253;true
1392;ImagesSoccer/VR97.5.png;188;test;,;image-keyboard-response;692;1046605;0.0-4.0-1.254;true
1716;ImagesTennis/TL97.5.png;190;test;.;image-keyboard-response;694;1048825;0.0-4.0-1.255;true
1492;ImagesTennis/TR105.png;188;test;.;image-keyboard-response;696;1050821;0.0-4.0-1.256;false
1121;ImagesDirect/VR107.5.png;190;test;.;image-keyboard-response;698;1052446;0.0-4.0-1.257;true
1268;ImagesTennis/TL90.png;190;test;.;image-keyboard-response;700;1054217;0.0-4.0-1.258;true
2486;ImagesSoccer/VR105.png;190;test;.;image-keyboard-response;702;1057207;0.0-4.0-1.259;true
2445;ImagesTennis/TR97.5.png;188;test;,;image-keyboard-response;704;1060156;0.0-4.0-1.260;true
1900;ImagesTennis/TL107.5.png;188;test;,;image-keyboard-response;706;1062562;0.0-4.0-1.261;true
848;ImagesDirect/VL107.5.png;188;test;,;image-keyboard-response;708;1063915;0.0-4.0-1.262;true
1463;ImagesDirect/VR97.5.png;188;test;,;image-keyboard-response;710;1065884;0.0-4.0-1.263;true
959;ImagesSoccer/VL110.png;188;test;,;image-keyboard-response;712;1067347;0.0-4.0-1.264;true
1862;ImagesTennis/TL102.5.png;190;test;,;image-keyboard-response;714;1069714;0.0-4.0-1.265;false
2252;ImagesTennis/TR102.5.png;188;test;.;image-keyboard-response;716;1072469;0.0-4.0-1.266;false
1496;ImagesDirect/VR95.png;188;test;,;image-keyboard-response;718;1074469;0.0-4.0-1.267;true
1198;ImagesSoccer/VL102.5.png;188;test;,;image-keyboard-response;720;1076171;0.0-4.0-1.268;true
1014;ImagesSoccer/VR110.png;190;test;.;image-keyboard-response;722;1077687;0.0-4.0-1.269;true
