rt;stimulus;key_press;test_part;correct_response;trial_type;trial_index;time_elapsed;internal_node_id;correct
9400;ImagesCoins/10L102.5.png;188;test;,;image-keyboard-response;4;33971;0.0-3.0-1.0;true
4833;ImagesCoins/10L100.png;188;test;.;image-keyboard-response;6;39310;0.0-3.0-1.1;false
4225;ImagesCoins/10L110.png;188;test;,;image-keyboard-response;8;44041;0.0-3.0-1.2;true
4784;ImagesCoins/10L97.5.png;190;test;.;image-keyboard-response;10;49332;0.0-3.0-1.3;true
4299;ImagesCoins/10R90.png;188;test;,;image-keyboard-response;12;54137;0.0-3.0-1.4;true
2106;ImagesCoins/10R110.png;190;test;.;image-keyboard-response;14;56751;0.0-3.0-1.5;true
1978;ImagesCoins/10R107.5.png;190;test;.;image-keyboard-response;16;59233;0.0-3.0-1.6;true
15237;ImagesCoins/10R97.5.png;188;test;,;image-keyboard-response;18;74976;0.0-3.0-1.7;true
3223;ImagesCoins/10L107.5.png;188;test;,;image-keyboard-response;20;78704;0.0-3.0-1.8;true
18074;ImagesCoins/10R100.png;190;test;.;image-keyboard-response;22;97285;0.0-3.0-1.9;true
3396;ImagesCoins/10R95.png;188;test;,;image-keyboard-response;24;101187;0.0-3.0-1.10;true
12173;ImagesCoins/10L95.png;190;test;.;image-keyboard-response;26;113863;0.0-3.0-1.11;true
1792;ImagesCoins/10L92.5.png;190;test;.;image-keyboard-response;28;116161;0.0-3.0-1.12;true
2064;ImagesCoins/10R92.5.png;188;test;,;image-keyboard-response;30;118731;0.0-3.0-1.13;true
2495;ImagesCoins/10L90.png;190;test;.;image-keyboard-response;32;121734;0.0-3.0-1.14;true
2165;ImagesCoins/10R102.5.png;190;test;.;image-keyboard-response;34;124407;0.0-3.0-1.15;true
2131;ImagesCoins/10L105.png;188;test;,;image-keyboard-response;36;127045;0.0-3.0-1.16;true
1499;ImagesCoins/10R105.png;190;test;.;image-keyboard-response;38;129050;0.0-3.0-1.17;true
1483;ImagesCoins/10L107.5.png;188;test;,;image-keyboard-response;40;131038;0.0-3.0-1.18;true
3861;ImagesCoins/10L100.png;188;test;.;image-keyboard-response;42;135406;0.0-3.0-1.19;false
1373;ImagesCoins/10L110.png;188;test;,;image-keyboard-response;44;137285;0.0-3.0-1.20;true
1474;ImagesCoins/10L90.png;190;test;.;image-keyboard-response;46;139265;0.0-3.0-1.21;true
1370;ImagesCoins/10R105.png;190;test;.;image-keyboard-response;48;141140;0.0-3.0-1.22;true
2393;ImagesCoins/10L105.png;188;test;,;image-keyboard-response;50;144038;0.0-3.0-1.23;true
1503;ImagesCoins/10R110.png;190;test;.;image-keyboard-response;52;146050;0.0-3.0-1.24;true
1847;ImagesCoins/10L92.5.png;190;test;.;image-keyboard-response;54;148403;0.0-3.0-1.25;true
4604;ImagesCoins/10R100.png;190;test;.;image-keyboard-response;56;153513;0.0-3.0-1.26;true
4394;ImagesCoins/10L97.5.png;190;test;.;image-keyboard-response;58;158414;0.0-3.0-1.27;true
3014;ImagesCoins/10R95.png;188;test;,;image-keyboard-response;60;161934;0.0-3.0-1.28;true
1990;ImagesCoins/10R107.5.png;190;test;.;image-keyboard-response;62;164440;0.0-3.0-1.29;true
7732;ImagesCoins/10R92.5.png;188;test;,;image-keyboard-response;64;172680;0.0-3.0-1.30;true
2588;ImagesCoins/10L95.png;190;test;.;image-keyboard-response;66;175782;0.0-3.0-1.31;true
2986;ImagesCoins/10R102.5.png;190;test;.;image-keyboard-response;68;179275;0.0-3.0-1.32;true
13499;ImagesCoins/10R97.5.png;190;test;,;image-keyboard-response;70;193283;0.0-3.0-1.33;false
1074;ImagesCoins/10R90.png;188;test;,;image-keyboard-response;72;194862;0.0-3.0-1.34;true
4287;ImagesCoins/10L102.5.png;188;test;,;image-keyboard-response;74;199668;0.0-3.0-1.35;true
2049;ImagesCoins/10L105.png;188;test;,;image-keyboard-response;76;202223;0.0-3.0-1.36;true
1374;ImagesCoins/10L90.png;190;test;.;image-keyboard-response;78;204103;0.0-3.0-1.37;true
1470;ImagesCoins/10R107.5.png;190;test;.;image-keyboard-response;80;206081;0.0-3.0-1.38;true
1435;ImagesCoins/10L110.png;188;test;,;image-keyboard-response;82;208022;0.0-3.0-1.39;true
3674;ImagesCoins/10R105.png;190;test;.;image-keyboard-response;84;212201;0.0-3.0-1.40;true
8009;ImagesCoins/10L100.png;190;test;.;image-keyboard-response;86;220715;0.0-3.0-1.41;true
22381;ImagesCoins/10R95.png;188;test;,;image-keyboard-response;88;243605;0.0-3.0-1.42;true
2139;ImagesCoins/10L92.5.png;190;test;.;image-keyboard-response;90;246251;0.0-3.0-1.43;true
1868;ImagesCoins/10R100.png;190;test;.;image-keyboard-response;92;248624;0.0-3.0-1.44;true
1235;ImagesCoins/10R90.png;188;test;,;image-keyboard-response;94;250367;0.0-3.0-1.45;true
1270;ImagesCoins/10L107.5.png;188;test;,;image-keyboard-response;96;252145;0.0-3.0-1.46;true
2017;ImagesCoins/10L95.png;190;test;.;image-keyboard-response;98;254668;0.0-3.0-1.47;true
1189;ImagesCoins/10R102.5.png;190;test;.;image-keyboard-response;100;256362;0.0-3.0-1.48;true
1898;ImagesCoins/10R92.5.png;188;test;,;image-keyboard-response;102;258767;0.0-3.0-1.49;true
2836;ImagesCoins/10R97.5.png;188;test;,;image-keyboard-response;104;262110;0.0-3.0-1.50;true
3292;ImagesCoins/10L102.5.png;188;test;,;image-keyboard-response;106;265908;0.0-3.0-1.51;true
5778;ImagesCoins/10L97.5.png;190;test;.;image-keyboard-response;108;272193;0.0-3.0-1.52;true
1114;ImagesCoins/10R110.png;190;test;.;image-keyboard-response;110;273814;0.0-3.0-1.53;true
13294;ImagesCoins/10L100.png;190;test;.;image-keyboard-response;112;287613;0.0-3.0-1.54;true
1609;ImagesCoins/10L92.5.png;190;test;.;image-keyboard-response;114;289726;0.0-3.0-1.55;true
2564;ImagesCoins/10L110.png;188;test;,;image-keyboard-response;116;292795;0.0-3.0-1.56;true
3883;ImagesCoins/10R100.png;190;test;.;image-keyboard-response;118;297183;0.0-3.0-1.57;true
3252;ImagesCoins/10L95.png;190;test;.;image-keyboard-response;120;300940;0.0-3.0-1.58;true
1893;ImagesCoins/10R105.png;190;test;.;image-keyboard-response;122;303338;0.0-3.0-1.59;true
6280;ImagesCoins/10R92.5.png;188;test;,;image-keyboard-response;124;310125;0.0-3.0-1.60;true
1247;ImagesCoins/10R102.5.png;190;test;.;image-keyboard-response;126;311878;0.0-3.0-1.61;true
962;ImagesCoins/10R110.png;190;test;.;image-keyboard-response;128;313359;0.0-3.0-1.62;true
3527;ImagesCoins/10R97.5.png;190;test;,;image-keyboard-response;130;317393;0.0-3.0-1.63;false
3014;ImagesCoins/10R95.png;188;test;,;image-keyboard-response;132;320915;0.0-3.0-1.64;true
1899;ImagesCoins/10L105.png;188;test;,;image-keyboard-response;134;323320;0.0-3.0-1.65;true
1142;ImagesCoins/10R107.5.png;190;test;.;image-keyboard-response;136;324968;0.0-3.0-1.66;true
3922;ImagesCoins/10L102.5.png;188;test;,;image-keyboard-response;138;329392;0.0-3.0-1.67;true
1163;ImagesCoins/10L90.png;190;test;.;image-keyboard-response;140;331062;0.0-3.0-1.68;true
6256;ImagesCoins/10L97.5.png;190;test;.;image-keyboard-response;142;337822;0.0-3.0-1.69;true
1995;ImagesCoins/10L107.5.png;188;test;,;image-keyboard-response;144;340325;0.0-3.0-1.70;true
1451;ImagesCoins/10R90.png;188;test;,;image-keyboard-response;146;342283;0.0-3.0-1.71;true
2041;ImagesCoins/10L102.5.png;188;test;,;image-keyboard-response;148;344827;0.0-3.0-1.72;true
2661;ImagesCoins/10R100.png;188;test;.;image-keyboard-response;150;347993;0.0-3.0-1.73;false
1768;ImagesCoins/10L90.png;190;test;.;image-keyboard-response;152;350268;0.0-3.0-1.74;true
6799;ImagesCoins/10R105.png;190;test;.;image-keyboard-response;154;357569;0.0-3.0-1.75;true
4187;ImagesCoins/10L100.png;190;test;.;image-keyboard-response;156;362267;0.0-3.0-1.76;true
5020;ImagesCoins/10R97.5.png;188;test;,;image-keyboard-response;158;367792;0.0-3.0-1.77;true
6916;ImagesCoins/10R95.png;188;test;,;image-keyboard-response;160;375214;0.0-3.0-1.78;true
33292;ImagesCoins/10L97.5.png;190;test;.;image-keyboard-response;162;409012;0.0-3.0-1.79;true
1116;ImagesCoins/10R110.png;190;test;.;image-keyboard-response;164;410632;0.0-3.0-1.80;true
1984;ImagesCoins/10L95.png;190;test;.;image-keyboard-response;166;413124;0.0-3.0-1.81;true
1264;ImagesCoins/10L110.png;188;test;,;image-keyboard-response;168;414895;0.0-3.0-1.82;true
1698;ImagesCoins/10L92.5.png;190;test;.;image-keyboard-response;170;417100;0.0-3.0-1.83;true
1394;ImagesCoins/10L107.5.png;188;test;,;image-keyboard-response;172;419001;0.0-3.0-1.84;true
1181;ImagesCoins/10R107.5.png;190;test;.;image-keyboard-response;174;420689;0.0-3.0-1.85;true
1220;ImagesCoins/10R90.png;188;test;,;image-keyboard-response;176;422412;0.0-3.0-1.86;true
3493;ImagesCoins/10R92.5.png;188;test;,;image-keyboard-response;178;426410;0.0-3.0-1.87;true
4585;ImagesCoins/10L105.png;188;test;,;image-keyboard-response;180;431501;0.0-3.0-1.88;true
1332;ImagesCoins/10R102.5.png;190;test;.;image-keyboard-response;182;433341;0.0-3.0-1.89;true
22751;ImagesTennis/TL100.png;188;test;.;image-keyboard-response;184;456597;0.0-4.0-1.0;false
3529;ImagesSoccer/VR97.5.png;188;test;,;image-keyboard-response;186;460634;0.0-4.0-1.1;true
1995;ImagesTennis/TR102.5.png;190;test;.;image-keyboard-response;188;463133;0.0-4.0-1.2;true
3746;ImagesDirect/VR92.5.png;188;test;,;image-keyboard-response;190;467383;0.0-4.0-1.3;true
1809;ImagesTennis/TL107.5.png;188;test;,;image-keyboard-response;192;469699;0.0-4.0-1.4;true
3125;ImagesTennis/TR90.png;188;test;,;image-keyboard-response;194;473331;0.0-4.0-1.5;true
2375;ImagesTennis/TL95.png;190;test;.;image-keyboard-response;196;476210;0.0-4.0-1.6;true
1794;ImagesSoccer/VL102.5.png;188;test;,;image-keyboard-response;198;478511;0.0-4.0-1.7;true
3224;ImagesDirect/VL92.5.png;190;test;.;image-keyboard-response;200;482239;0.0-4.0-1.8;true
5675;ImagesSoccer/VL107.5.png;188;test;,;image-keyboard-response;202;488419;0.0-4.0-1.9;true
3298;ImagesSoccer/VL90.png;190;test;.;image-keyboard-response;204;492224;0.0-4.0-1.10;true
1712;ImagesSoccer/VR110.png;190;test;.;image-keyboard-response;206;494440;0.0-4.0-1.11;true
4083;ImagesTennis/TL105.png;188;test;,;image-keyboard-response;208;499028;0.0-4.0-1.12;true
3174;ImagesSoccer/VR100.png;190;test;.;image-keyboard-response;210;502707;0.0-4.0-1.13;true
19202;ImagesSoccer/VR95.png;190;test;,;image-keyboard-response;212;522414;0.0-4.0-1.14;false
1664;ImagesDirect/VL110.png;188;test;,;image-keyboard-response;214;524586;0.0-4.0-1.15;true
3875;ImagesDirect/VL105.png;188;test;,;image-keyboard-response;216;528967;0.0-4.0-1.16;true
2440;ImagesTennis/TR95.png;188;test;,;image-keyboard-response;218;531912;0.0-4.0-1.17;true
1933;ImagesTennis/TR107.5.png;190;test;.;image-keyboard-response;220;534352;0.0-4.0-1.18;true
1300;ImagesSoccer/VL110.png;188;test;,;image-keyboard-response;222;536157;0.0-4.0-1.19;true
5284;ImagesDirect/VL95.png;190;test;.;image-keyboard-response;224;541947;0.0-4.0-1.20;true
2257;ImagesTennis/TL92.5.png;190;test;.;image-keyboard-response;226;544711;0.0-4.0-1.21;true
9211;ImagesTennis/TL102.5.png;188;test;,;image-keyboard-response;228;554426;0.0-4.0-1.22;true
1506;ImagesDirect/VR110.png;190;test;.;image-keyboard-response;230;556439;0.0-4.0-1.23;true
1333;ImagesSoccer/VR107.5.png;190;test;.;image-keyboard-response;232;558277;0.0-4.0-1.24;true
4315;ImagesTennis/TR105.png;190;test;.;image-keyboard-response;234;563098;0.0-4.0-1.25;true
2174;ImagesSoccer/VL95.png;190;test;.;image-keyboard-response;236;565781;0.0-4.0-1.26;true
3028;ImagesSoccer/VR92.5.png;188;test;,;image-keyboard-response;238;569316;0.0-4.0-1.27;true
5802;ImagesSoccer/VL105.png;188;test;,;image-keyboard-response;240;575623;0.0-4.0-1.28;true
1472;ImagesTennis/TR110.png;190;test;.;image-keyboard-response;242;577605;0.0-4.0-1.29;true
8547;ImagesSoccer/VL97.5.png;190;test;.;image-keyboard-response;244;586661;0.0-4.0-1.30;true
1273;ImagesDirect/VR107.5.png;190;test;.;image-keyboard-response;246;588439;0.0-4.0-1.31;true
5819;ImagesTennis/TR100.png;190;test;.;image-keyboard-response;248;594763;0.0-4.0-1.32;true
1704;ImagesSoccer/VR105.png;190;test;.;image-keyboard-response;250;596975;0.0-4.0-1.33;true
1898;ImagesTennis/TL90.png;190;test;.;image-keyboard-response;252;599379;0.0-4.0-1.34;true
2106;ImagesDirect/VR90.png;188;test;,;image-keyboard-response;254;601992;0.0-4.0-1.35;true
1797;ImagesTennis/TR92.5.png;188;test;,;image-keyboard-response;256;604294;0.0-4.0-1.36;true
1096;ImagesDirect/VL107.5.png;188;test;,;image-keyboard-response;258;605895;0.0-4.0-1.37;true
29319;ImagesDirect/VL100.png;188;test;.;image-keyboard-response;260;635721;0.0-4.0-1.38;false
2198;ImagesDirect/VL97.5.png;190;test;.;image-keyboard-response;262;638425;0.0-4.0-1.39;true
2986;ImagesDirect/VL90.png;190;test;.;image-keyboard-response;264;641917;0.0-4.0-1.40;true
2264;ImagesTennis/TL97.5.png;190;test;.;image-keyboard-response;266;644688;0.0-4.0-1.41;true
3977;ImagesDirect/VR97.5.png;188;test;,;image-keyboard-response;268;649172;0.0-4.0-1.42;true
1237;ImagesSoccer/VR102.5.png;190;test;.;image-keyboard-response;270;650916;0.0-4.0-1.43;true
2742;ImagesDirect/VR105.png;190;test;.;image-keyboard-response;272;654164;0.0-4.0-1.44;true
2069;ImagesDirect/VL102.5.png;188;test;,;image-keyboard-response;274;656739;0.0-4.0-1.45;true
5184;ImagesSoccer/VL100.png;190;test;.;image-keyboard-response;276;662430;0.0-4.0-1.46;true
2041;ImagesSoccer/VL92.5.png;190;test;.;image-keyboard-response;278;664978;0.0-4.0-1.47;true
4983;ImagesDirect/VR100.png;190;test;.;image-keyboard-response;280;670467;0.0-4.0-1.48;true
1332;ImagesSoccer/VR90.png;188;test;,;image-keyboard-response;282;672303;0.0-4.0-1.49;true
3157;ImagesDirect/VR102.5.png;190;test;.;image-keyboard-response;284;675964;0.0-4.0-1.50;true
5218;ImagesTennis/TR97.5.png;188;test;,;image-keyboard-response;286;681686;0.0-4.0-1.51;true
3278;ImagesTennis/TL110.png;188;test;,;image-keyboard-response;288;685472;0.0-4.0-1.52;true
51135;ImagesDirect/VR95.png;188;test;,;image-keyboard-response;290;737115;0.0-4.0-1.53;true
2319;ImagesSoccer/VL107.5.png;188;test;,;image-keyboard-response;292;739941;0.0-4.0-1.54;true
5115;ImagesTennis/TR110.png;190;test;.;image-keyboard-response;294;745563;0.0-4.0-1.55;true
1777;ImagesDirect/VR92.5.png;188;test;,;image-keyboard-response;296;747846;0.0-4.0-1.56;true
7365;ImagesTennis/TR97.5.png;188;test;,;image-keyboard-response;298;755718;0.0-4.0-1.57;true
1033;ImagesDirect/VL107.5.png;188;test;,;image-keyboard-response;300;757259;0.0-4.0-1.58;true
6117;ImagesTennis/TL102.5.png;188;test;,;image-keyboard-response;302;763880;0.0-4.0-1.59;true
2483;ImagesSoccer/VL102.5.png;188;test;,;image-keyboard-response;304;766869;0.0-4.0-1.60;true
1306;ImagesSoccer/VR110.png;190;test;.;image-keyboard-response;306;768683;0.0-4.0-1.61;true
2074;ImagesSoccer/VL92.5.png;190;test;.;image-keyboard-response;308;771262;0.0-4.0-1.62;true
1548;ImagesDirect/VL110.png;188;test;,;image-keyboard-response;310;773315;0.0-4.0-1.63;true
1743;ImagesSoccer/VR90.png;188;test;,;image-keyboard-response;312;775564;0.0-4.0-1.64;true
1207;ImagesDirect/VR107.5.png;190;test;.;image-keyboard-response;314;777279;0.0-4.0-1.65;true
1310;ImagesTennis/TL92.5.png;190;test;.;image-keyboard-response;316;779097;0.0-4.0-1.66;true
3618;ImagesSoccer/VL97.5.png;190;test;.;image-keyboard-response;318;783222;0.0-4.0-1.67;true
1510;ImagesSoccer/VR107.5.png;190;test;.;image-keyboard-response;320;785239;0.0-4.0-1.68;true
4753;ImagesDirect/VR105.png;190;test;.;image-keyboard-response;322;790497;0.0-4.0-1.69;true
2138;ImagesSoccer/VR92.5.png;188;test;,;image-keyboard-response;324;793141;0.0-4.0-1.70;true
1833;ImagesDirect/VL90.png;190;test;.;image-keyboard-response;326;795484;0.0-4.0-1.71;true
1616;ImagesSoccer/VR105.png;190;test;.;image-keyboard-response;328;797605;0.0-4.0-1.72;true
2405;ImagesDirect/VL95.png;190;test;.;image-keyboard-response;330;800516;0.0-4.0-1.73;true
4481;ImagesDirect/VL92.5.png;190;test;.;image-keyboard-response;332;805505;0.0-4.0-1.74;true
2578;ImagesDirect/VR97.5.png;188;test;,;image-keyboard-response;334;808593;0.0-4.0-1.75;true
1364;ImagesTennis/TR107.5.png;190;test;.;image-keyboard-response;336;810462;0.0-4.0-1.76;true
14202;ImagesSoccer/VL95.png;190;test;.;image-keyboard-response;338;825168;0.0-4.0-1.77;true
2933;ImagesTennis/TR100.png;190;test;.;image-keyboard-response;340;828607;0.0-4.0-1.78;true
9099;ImagesDirect/VL100.png;188;test;.;image-keyboard-response;342;838214;0.0-4.0-1.79;false
1724;ImagesDirect/VL105.png;188;test;,;image-keyboard-response;344;840446;0.0-4.0-1.80;true
1480;ImagesDirect/VR90.png;188;test;,;image-keyboard-response;346;842432;0.0-4.0-1.81;true
3486;ImagesSoccer/VL90.png;190;test;.;image-keyboard-response;348;846423;0.0-4.0-1.82;true
14722;ImagesDirect/VL102.5.png;188;test;,;image-keyboard-response;350;861652;0.0-4.0-1.83;true
1950;ImagesSoccer/VL110.png;188;test;,;image-keyboard-response;352;864111;0.0-4.0-1.84;true
2265;ImagesDirect/VR110.png;190;test;.;image-keyboard-response;354;866880;0.0-4.0-1.85;true
2209;ImagesTennis/TR102.5.png;190;test;.;image-keyboard-response;356;869595;0.0-4.0-1.86;true
1466;ImagesSoccer/VR102.5.png;190;test;.;image-keyboard-response;358;871565;0.0-4.0-1.87;true
1278;ImagesTennis/TL110.png;188;test;,;image-keyboard-response;360;873349;0.0-4.0-1.88;true
7803;ImagesTennis/TR95.png;188;test;,;image-keyboard-response;362;881657;0.0-4.0-1.89;true
2623;ImagesSoccer/VR95.png;190;test;,;image-keyboard-response;364;884786;0.0-4.0-1.90;false
1474;ImagesTennis/TL100.png;190;test;.;image-keyboard-response;366;886764;0.0-4.0-1.91;true
7813;ImagesTennis/TL105.png;188;test;,;image-keyboard-response;368;895082;0.0-4.0-1.92;true
1486;ImagesTennis/TL95.png;190;test;.;image-keyboard-response;370;897074;0.0-4.0-1.93;true
5302;ImagesSoccer/VR97.5.png;190;test;,;image-keyboard-response;372;902881;0.0-4.0-1.94;false
1227;ImagesTennis/TL97.5.png;190;test;.;image-keyboard-response;374;904616;0.0-4.0-1.95;true
1627;ImagesSoccer/VR100.png;190;test;.;image-keyboard-response;376;906749;0.0-4.0-1.96;true
1640;ImagesSoccer/VL105.png;188;test;,;image-keyboard-response;378;908910;0.0-4.0-1.97;true
1556;ImagesTennis/TR92.5.png;188;test;,;image-keyboard-response;380;910974;0.0-4.0-1.98;true
4382;ImagesSoccer/VL100.png;188;test;.;image-keyboard-response;382;915861;0.0-4.0-1.99;false
1652;ImagesDirect/VL97.5.png;190;test;.;image-keyboard-response;384;918020;0.0-4.0-1.100;true
2031;ImagesTennis/TR105.png;190;test;.;image-keyboard-response;386;920554;0.0-4.0-1.101;true
1454;ImagesTennis/TR90.png;188;test;,;image-keyboard-response;388;922516;0.0-4.0-1.102;true
2172;ImagesDirect/VR95.png;188;test;,;image-keyboard-response;390;925193;0.0-4.0-1.103;true
2845;ImagesDirect/VR100.png;190;test;.;image-keyboard-response;392;928545;0.0-4.0-1.104;true
1565;ImagesDirect/VR102.5.png;190;test;.;image-keyboard-response;394;930614;0.0-4.0-1.105;true
2048;ImagesTennis/TL107.5.png;188;test;,;image-keyboard-response;396;933167;0.0-4.0-1.106;true
1720;ImagesTennis/TL90.png;190;test;.;image-keyboard-response;398;935392;0.0-4.0-1.107;true
2134;ImagesDirect/VR97.5.png;188;test;,;image-keyboard-response;400;938033;0.0-4.0-1.108;true
4341;ImagesDirect/VR92.5.png;188;test;,;image-keyboard-response;402;942880;0.0-4.0-1.109;true
4368;ImagesSoccer/VR97.5.png;190;test;,;image-keyboard-response;404;947756;0.0-4.0-1.110;false
1269;ImagesTennis/TL95.png;190;test;.;image-keyboard-response;406;949531;0.0-4.0-1.111;true
3527;ImagesTennis/TL105.png;188;test;,;image-keyboard-response;408;953565;0.0-4.0-1.112;true
1582;ImagesSoccer/VL110.png;188;test;,;image-keyboard-response;410;955655;0.0-4.0-1.113;true
25465;ImagesDirect/VL102.5.png;188;test;,;image-keyboard-response;412;981626;0.0-4.0-1.114;true
2292;ImagesSoccer/VR95.png;190;test;,;image-keyboard-response;414;984426;0.0-4.0-1.115;false
1071;ImagesDirect/VL107.5.png;188;test;,;image-keyboard-response;416;986001;0.0-4.0-1.116;true
4806;ImagesSoccer/VL100.png;190;test;.;image-keyboard-response;418;991313;0.0-4.0-1.117;true
1909;ImagesDirect/VL95.png;190;test;.;image-keyboard-response;420;993729;0.0-4.0-1.118;true
1625;ImagesSoccer/VR102.5.png;190;test;.;image-keyboard-response;422;995858;0.0-4.0-1.119;true
921;ImagesTennis/TR110.png;190;test;.;image-keyboard-response;424;997285;0.0-4.0-1.120;true
1199;ImagesDirect/VR102.5.png;190;test;.;image-keyboard-response;426;998989;0.0-4.0-1.121;true
1072;ImagesDirect/VR107.5.png;190;test;.;image-keyboard-response;428;1000566;0.0-4.0-1.122;true
1275;ImagesSoccer/VR90.png;188;test;,;image-keyboard-response;430;1002344;0.0-4.0-1.123;true
7690;ImagesTennis/TL100.png;190;test;.;image-keyboard-response;432;1010543;0.0-4.0-1.124;true
1474;ImagesTennis/TR95.png;188;test;,;image-keyboard-response;434;1012524;0.0-4.0-1.125;true
869;ImagesSoccer/VL90.png;190;test;.;image-keyboard-response;436;1013902;0.0-4.0-1.126;true
930;ImagesSoccer/VR92.5.png;188;test;,;image-keyboard-response;438;1015336;0.0-4.0-1.127;true
1479;ImagesSoccer/VL102.5.png;188;test;,;image-keyboard-response;440;1017321;0.0-4.0-1.128;true
1364;ImagesSoccer/VL95.png;190;test;.;image-keyboard-response;442;1019191;0.0-4.0-1.129;true
1543;ImagesTennis/TL102.5.png;188;test;,;image-keyboard-response;444;1021240;0.0-4.0-1.130;true
1029;ImagesTennis/TR105.png;190;test;.;image-keyboard-response;446;1022774;0.0-4.0-1.131;true
1329;ImagesDirect/VL90.png;190;test;.;image-keyboard-response;448;1024607;0.0-4.0-1.132;true
1720;ImagesSoccer/VR105.png;190;test;.;image-keyboard-response;450;1026833;0.0-4.0-1.133;true
1276;ImagesTennis/TL92.5.png;190;test;.;image-keyboard-response;452;1028615;0.0-4.0-1.134;true
1215;ImagesDirect/VR100.png;190;test;.;image-keyboard-response;454;1030336;0.0-4.0-1.135;true
935;ImagesTennis/TL110.png;188;test;,;image-keyboard-response;456;1031778;0.0-4.0-1.136;true
2087;ImagesTennis/TR100.png;190;test;.;image-keyboard-response;458;1034369;0.0-4.0-1.137;true
4088;ImagesSoccer/VR100.png;190;test;.;image-keyboard-response;460;1038962;0.0-4.0-1.138;true
1386;ImagesTennis/TL90.png;190;test;.;image-keyboard-response;462;1040855;0.0-4.0-1.139;true
2424;ImagesTennis/TR102.5.png;190;test;.;image-keyboard-response;464;1043784;0.0-4.0-1.140;true
1375;ImagesSoccer/VL107.5.png;188;test;,;image-keyboard-response;466;1045665;0.0-4.0-1.141;true
4597;ImagesSoccer/VL97.5.png;190;test;.;image-keyboard-response;468;1050766;0.0-4.0-1.142;true
1157;ImagesTennis/TR92.5.png;188;test;,;image-keyboard-response;470;1052428;0.0-4.0-1.143;true
2090;ImagesDirect/VL105.png;188;test;,;image-keyboard-response;472;1055021;0.0-4.0-1.144;true
1110;ImagesDirect/VL110.png;188;test;,;image-keyboard-response;474;1056638;0.0-4.0-1.145;true
1673;ImagesTennis/TL97.5.png;190;test;.;image-keyboard-response;476;1058819;0.0-4.0-1.146;true
971;ImagesDirect/VR90.png;188;test;,;image-keyboard-response;478;1060297;0.0-4.0-1.147;true
1454;ImagesDirect/VR110.png;190;test;.;image-keyboard-response;480;1062256;0.0-4.0-1.148;true
1286;ImagesDirect/VL100.png;188;test;.;image-keyboard-response;482;1064047;0.0-4.0-1.149;false
2998;ImagesDirect/VR105.png;190;test;.;image-keyboard-response;484;1067549;0.0-4.0-1.150;true
1187;ImagesSoccer/VR110.png;190;test;.;image-keyboard-response;486;1069241;0.0-4.0-1.151;true
7054;ImagesTennis/TR97.5.png;190;test;,;image-keyboard-response;488;1076800;0.0-4.0-1.152;false
2291;ImagesDirect/VR95.png;188;test;,;image-keyboard-response;490;1079600;0.0-4.0-1.153;true
2185;ImagesDirect/VL92.5.png;190;test;.;image-keyboard-response;492;1082291;0.0-4.0-1.154;true
1054;ImagesTennis/TR90.png;188;test;,;image-keyboard-response;494;1083849;0.0-4.0-1.155;true
1304;ImagesTennis/TL107.5.png;188;test;,;image-keyboard-response;496;1085656;0.0-4.0-1.156;true
2109;ImagesSoccer/VL105.png;188;test;,;image-keyboard-response;498;1088270;0.0-4.0-1.157;true
1743;ImagesSoccer/VL92.5.png;190;test;.;image-keyboard-response;500;1090518;0.0-4.0-1.158;true
1375;ImagesSoccer/VR107.5.png;190;test;.;image-keyboard-response;502;1092398;0.0-4.0-1.159;true
1254;ImagesTennis/TR107.5.png;190;test;.;image-keyboard-response;504;1094157;0.0-4.0-1.160;true
4005;ImagesDirect/VL97.5.png;190;test;.;image-keyboard-response;506;1098668;0.0-4.0-1.161;true
3312;ImagesTennis/TL102.5.png;188;test;,;image-keyboard-response;508;1102489;0.0-4.0-1.162;true
1154;ImagesSoccer/VL100.png;188;test;.;image-keyboard-response;510;1104147;0.0-4.0-1.163;false
1368;ImagesTennis/TR95.png;188;test;,;image-keyboard-response;512;1106022;0.0-4.0-1.164;true
1918;ImagesDirect/VR102.5.png;190;test;.;image-keyboard-response;514;1108443;0.0-4.0-1.165;true
2975;ImagesTennis/TR102.5.png;190;test;.;image-keyboard-response;516;1111923;0.0-4.0-1.166;true
3309;ImagesSoccer/VL97.5.png;190;test;.;image-keyboard-response;518;1115739;0.0-4.0-1.167;true
2137;ImagesTennis/TR100.png;190;test;.;image-keyboard-response;520;1118386;0.0-4.0-1.168;true
1530;ImagesTennis/TR92.5.png;188;test;,;image-keyboard-response;522;1120422;0.0-4.0-1.169;true
1535;ImagesSoccer/VR97.5.png;190;test;,;image-keyboard-response;524;1122463;0.0-4.0-1.170;false
1203;ImagesDirect/VL92.5.png;190;test;.;image-keyboard-response;526;1124170;0.0-4.0-1.171;true
1442;ImagesSoccer/VL90.png;190;test;.;image-keyboard-response;528;1126120;0.0-4.0-1.172;true
2092;ImagesDirect/VR97.5.png;190;test;,;image-keyboard-response;530;1128719;0.0-4.0-1.173;false
1050;ImagesSoccer/VR107.5.png;190;test;.;image-keyboard-response;532;1130277;0.0-4.0-1.174;true
1938;ImagesDirect/VL95.png;190;test;.;image-keyboard-response;534;1132719;0.0-4.0-1.175;true
2847;ImagesTennis/TR97.5.png;188;test;,;image-keyboard-response;536;1136073;0.0-4.0-1.176;true
860;ImagesDirect/VR110.png;190;test;.;image-keyboard-response;538;1137440;0.0-4.0-1.177;true
1035;ImagesDirect/VL110.png;188;test;,;image-keyboard-response;540;1138982;0.0-4.0-1.178;true
1869;ImagesDirect/VL90.png;190;test;.;image-keyboard-response;542;1141357;0.0-4.0-1.179;true
2152;ImagesDirect/VR105.png;190;test;.;image-keyboard-response;544;1144015;0.0-4.0-1.180;true
1949;ImagesSoccer/VR110.png;190;test;.;image-keyboard-response;546;1146471;0.0-4.0-1.181;true
1138;ImagesSoccer/VL102.5.png;188;test;,;image-keyboard-response;548;1148112;0.0-4.0-1.182;true
996;ImagesTennis/TR107.5.png;190;test;.;image-keyboard-response;550;1149615;0.0-4.0-1.183;true
1793;ImagesSoccer/VR102.5.png;190;test;.;image-keyboard-response;552;1151913;0.0-4.0-1.184;true
1561;ImagesSoccer/VL95.png;190;test;.;image-keyboard-response;554;1153980;0.0-4.0-1.185;true
1291;ImagesDirect/VL107.5.png;188;test;,;image-keyboard-response;556;1155775;0.0-4.0-1.186;true
1762;ImagesDirect/VL97.5.png;190;test;.;image-keyboard-response;558;1158044;0.0-4.0-1.187;true
1572;ImagesTennis/TR105.png;190;test;.;image-keyboard-response;560;1160122;0.0-4.0-1.188;true
1863;ImagesTennis/TR110.png;190;test;.;image-keyboard-response;562;1162490;0.0-4.0-1.189;true
2399;ImagesSoccer/VL107.5.png;188;test;,;image-keyboard-response;564;1165397;0.0-4.0-1.190;true
1681;ImagesDirect/VL105.png;188;test;,;image-keyboard-response;566;1167584;0.0-4.0-1.191;true
2514;ImagesTennis/TL105.png;188;test;,;image-keyboard-response;568;1170606;0.0-4.0-1.192;true
3227;ImagesTennis/TL95.png;190;test;.;image-keyboard-response;570;1174340;0.0-4.0-1.193;true
3072;ImagesSoccer/VR92.5.png;188;test;,;image-keyboard-response;572;1177919;0.0-4.0-1.194;true
1775;ImagesSoccer/VR100.png;190;test;.;image-keyboard-response;574;1180202;0.0-4.0-1.195;true
1934;ImagesDirect/VL102.5.png;188;test;,;image-keyboard-response;576;1182643;0.0-4.0-1.196;true
1096;ImagesSoccer/VR90.png;188;test;,;image-keyboard-response;578;1184260;0.0-4.0-1.197;true
989;ImagesTennis/TL110.png;188;test;,;image-keyboard-response;580;1185754;0.0-4.0-1.198;true
1139;ImagesDirect/VR90.png;188;test;,;image-keyboard-response;582;1187397;0.0-4.0-1.199;true
1224;ImagesDirect/VR92.5.png;188;test;,;image-keyboard-response;584;1189127;0.0-4.0-1.200;true
1090;ImagesTennis/TL90.png;190;test;.;image-keyboard-response;586;1190723;0.0-4.0-1.201;true
1055;ImagesSoccer/VL105.png;188;test;,;image-keyboard-response;588;1192282;0.0-4.0-1.202;true
1792;ImagesDirect/VR107.5.png;190;test;.;image-keyboard-response;590;1194577;0.0-4.0-1.203;true
2002;ImagesSoccer/VR95.png;188;test;,;image-keyboard-response;592;1197084;0.0-4.0-1.204;true
3014;ImagesTennis/TL100.png;190;test;.;image-keyboard-response;594;1200605;0.0-4.0-1.205;true
871;ImagesSoccer/VR105.png;190;test;.;image-keyboard-response;596;1201983;0.0-4.0-1.206;true
993;ImagesSoccer/VL110.png;188;test;,;image-keyboard-response;598;1203485;0.0-4.0-1.207;true
1191;ImagesTennis/TL97.5.png;190;test;.;image-keyboard-response;600;1205184;0.0-4.0-1.208;true
4492;ImagesDirect/VR100.png;190;test;.;image-keyboard-response;602;1210180;0.0-4.0-1.209;true
1041;ImagesTennis/TL92.5.png;190;test;.;image-keyboard-response;604;1211727;0.0-4.0-1.210;true
2228;ImagesTennis/TR90.png;188;test;,;image-keyboard-response;606;1214462;0.0-4.0-1.211;true
3635;ImagesDirect/VL100.png;190;test;.;image-keyboard-response;608;1218602;0.0-4.0-1.212;true
2199;ImagesSoccer/VL92.5.png;190;test;.;image-keyboard-response;610;1221307;0.0-4.0-1.213;true
959;ImagesTennis/TL107.5.png;188;test;,;image-keyboard-response;612;1222773;0.0-4.0-1.214;true
1391;ImagesDirect/VR95.png;188;test;,;image-keyboard-response;614;1224675;0.0-4.0-1.215;true
1362;ImagesTennis/TL97.5.png;190;test;.;image-keyboard-response;616;1226544;0.0-4.0-1.216;true
1203;ImagesDirect/VL92.5.png;190;test;.;image-keyboard-response;618;1228253;0.0-4.0-1.217;true
1672;ImagesSoccer/VR100.png;190;test;.;image-keyboard-response;620;1230433;0.0-4.0-1.218;true
4030;ImagesTennis/TL102.5.png;188;test;,;image-keyboard-response;622;1234970;0.0-4.0-1.219;true
6193;ImagesTennis/TR97.5.png;190;test;,;image-keyboard-response;624;1241667;0.0-4.0-1.220;false
12272;ImagesSoccer/VL95.png;190;test;.;image-keyboard-response;626;1254445;0.0-4.0-1.221;true
1517;ImagesSoccer/VL102.5.png;188;test;,;image-keyboard-response;628;1256468;0.0-4.0-1.222;true
5068;ImagesSoccer/VL97.5.png;190;test;.;image-keyboard-response;630;1262040;0.0-4.0-1.223;true
952;ImagesTennis/TL110.png;188;test;,;image-keyboard-response;632;1263500;0.0-4.0-1.224;true
737;ImagesTennis/TR107.5.png;190;test;.;image-keyboard-response;634;1264743;0.0-4.0-1.225;true
913;ImagesDirect/VL107.5.png;188;test;,;image-keyboard-response;636;1266160;0.0-4.0-1.226;true
1027;ImagesSoccer/VR105.png;190;test;.;image-keyboard-response;638;1267692;0.0-4.0-1.227;true
1123;ImagesSoccer/VR110.png;190;test;.;image-keyboard-response;640;1269324;0.0-4.0-1.228;true
965;ImagesTennis/TR110.png;190;test;.;image-keyboard-response;642;1270793;0.0-4.0-1.229;true
1741;ImagesDirect/VR92.5.png;188;test;,;image-keyboard-response;644;1273039;0.0-4.0-1.230;true
1567;ImagesTennis/TR92.5.png;188;test;,;image-keyboard-response;646;1275112;0.0-4.0-1.231;true
968;ImagesDirect/VR110.png;190;test;.;image-keyboard-response;648;1276587;0.0-4.0-1.232;true
1766;ImagesDirect/VR105.png;190;test;.;image-keyboard-response;650;1278861;0.0-4.0-1.233;true
2287;ImagesDirect/VR97.5.png;188;test;,;image-keyboard-response;652;1281654;0.0-4.0-1.234;true
4062;ImagesTennis/TL95.png;190;test;.;image-keyboard-response;654;1286223;0.0-4.0-1.235;true
2058;ImagesDirect/VL95.png;190;test;.;image-keyboard-response;656;1288788;0.0-4.0-1.236;true
3520;ImagesTennis/TL100.png;188;test;.;image-keyboard-response;658;1292814;0.0-4.0-1.237;false
7752;ImagesDirect/VR100.png;190;test;.;image-keyboard-response;660;1301071;0.0-4.0-1.238;true
970;ImagesSoccer/VL105.png;188;test;,;image-keyboard-response;662;1302549;0.0-4.0-1.239;true
966;ImagesTennis/TR90.png;188;test;,;image-keyboard-response;664;1304023;0.0-4.0-1.240;true
1072;ImagesDirect/VL90.png;190;test;.;image-keyboard-response;666;1305601;0.0-4.0-1.241;true
1066;ImagesDirect/VL102.5.png;188;test;,;image-keyboard-response;668;1307172;0.0-4.0-1.242;true
5729;ImagesTennis/TR100.png;190;test;.;image-keyboard-response;670;1313407;0.0-4.0-1.243;true
2278;ImagesSoccer/VL92.5.png;190;test;.;image-keyboard-response;672;1316193;0.0-4.0-1.244;true
1312;ImagesTennis/TR95.png;188;test;,;image-keyboard-response;674;1318008;0.0-4.0-1.245;true
1116;ImagesSoccer/VL110.png;188;test;,;image-keyboard-response;676;1319631;0.0-4.0-1.246;true
2717;ImagesSoccer/VL100.png;188;test;.;image-keyboard-response;678;1322856;0.0-4.0-1.247;false
4410;ImagesDirect/VL100.png;188;test;.;image-keyboard-response;680;1327772;0.0-4.0-1.248;false
1881;ImagesDirect/VL105.png;188;test;,;image-keyboard-response;682;1330162;0.0-4.0-1.249;true
844;ImagesTennis/TL90.png;190;test;.;image-keyboard-response;684;1331512;0.0-4.0-1.250;true
1056;ImagesSoccer/VR95.png;188;test;,;image-keyboard-response;686;1333075;0.0-4.0-1.251;true
909;ImagesSoccer/VR92.5.png;188;test;,;image-keyboard-response;688;1334488;0.0-4.0-1.252;true
1306;ImagesSoccer/VR107.5.png;190;test;.;image-keyboard-response;690;1336301;0.0-4.0-1.253;true
1205;ImagesDirect/VR90.png;188;test;,;image-keyboard-response;692;1338012;0.0-4.0-1.254;true
1103;ImagesTennis/TR105.png;190;test;.;image-keyboard-response;694;1339621;0.0-4.0-1.255;true
801;ImagesDirect/VR107.5.png;190;test;.;image-keyboard-response;696;1340930;0.0-4.0-1.256;true
926;ImagesTennis/TL107.5.png;188;test;,;image-keyboard-response;698;1342359;0.0-4.0-1.257;true
1455;ImagesSoccer/VL90.png;190;test;.;image-keyboard-response;700;1344319;0.0-4.0-1.258;true
926;ImagesDirect/VL110.png;188;test;,;image-keyboard-response;702;1345750;0.0-4.0-1.259;true
2515;ImagesSoccer/VR90.png;188;test;,;image-keyboard-response;704;1348769;0.0-4.0-1.260;true
1255;ImagesTennis/TR102.5.png;190;test;.;image-keyboard-response;706;1350535;0.0-4.0-1.261;true
3221;ImagesDirect/VR95.png;188;test;,;image-keyboard-response;708;1354260;0.0-4.0-1.262;true
2842;ImagesDirect/VR102.5.png;190;test;.;image-keyboard-response;710;1357613;0.0-4.0-1.263;true
1339;ImagesSoccer/VR102.5.png;190;test;.;image-keyboard-response;712;1359460;0.0-4.0-1.264;true
929;ImagesSoccer/VL107.5.png;188;test;,;image-keyboard-response;714;1360894;0.0-4.0-1.265;true
2117;ImagesSoccer/VR97.5.png;188;test;,;image-keyboard-response;716;1363516;0.0-4.0-1.266;true
3884;ImagesDirect/VL97.5.png;190;test;.;image-keyboard-response;718;1367907;0.0-4.0-1.267;true
915;ImagesTennis/TL92.5.png;190;test;.;image-keyboard-response;720;1369330;0.0-4.0-1.268;true
924;ImagesTennis/TL105.png;188;test;,;image-keyboard-response;722;1370761;0.0-4.0-1.269;true
