rt;stimulus;key_press;test_part;correct_response;trial_type;trial_index;time_elapsed;internal_node_id;correct
9503;ImagesCoins/10R107.5.png;190;test;.;image-keyboard-response;4;43963;0.0-3.0-1.0;true
13543;ImagesCoins/10R102.5.png;188;test;.;image-keyboard-response;6;58009;0.0-3.0-1.1;false
2575;ImagesCoins/10R110.png;190;test;.;image-keyboard-response;8;61089;0.0-3.0-1.2;true
5096;ImagesCoins/10L107.5.png;190;test;,;image-keyboard-response;10;66689;0.0-3.0-1.3;false
4256;ImagesCoins/10L110.png;190;test;,;image-keyboard-response;12;71449;0.0-3.0-1.4;false
7584;ImagesCoins/10R97.5.png;190;test;,;image-keyboard-response;14;79537;0.0-3.0-1.5;false
3481;ImagesCoins/10R92.5.png;190;test;,;image-keyboard-response;16;83521;0.0-3.0-1.6;false
2824;ImagesCoins/10R90.png;190;test;,;image-keyboard-response;18;86849;0.0-3.0-1.7;false
2719;ImagesCoins/10L92.5.png;188;test;.;image-keyboard-response;20;90073;0.0-3.0-1.8;false
9151;ImagesCoins/10R100.png;188;test;.;image-keyboard-response;22;99729;0.0-3.0-1.9;false
6751;ImagesCoins/10L105.png;188;test;,;image-keyboard-response;24;106985;0.0-3.0-1.10;true
12167;ImagesCoins/10L102.5.png;190;test;,;image-keyboard-response;26;119657;0.0-3.0-1.11;false
2105;ImagesCoins/10L90.png;190;test;.;image-keyboard-response;28;122265;0.0-3.0-1.12;true
2184;ImagesCoins/10L97.5.png;190;test;.;image-keyboard-response;30;124953;0.0-3.0-1.13;true
3040;ImagesCoins/10L95.png;190;test;.;image-keyboard-response;32;128497;0.0-3.0-1.14;true
5185;ImagesCoins/10L100.png;190;test;.;image-keyboard-response;34;134185;0.0-3.0-1.15;true
4055;ImagesCoins/10R105.png;190;test;.;image-keyboard-response;36;138745;0.0-3.0-1.16;true
4688;ImagesCoins/10R95.png;188;test;,;image-keyboard-response;38;143937;0.0-3.0-1.17;true
5175;ImagesCoins/10L97.5.png;190;test;.;image-keyboard-response;40;149617;0.0-3.0-1.18;true
2375;ImagesCoins/10R107.5.png;190;test;.;image-keyboard-response;42;152497;0.0-3.0-1.19;true
6360;ImagesCoins/10R102.5.png;190;test;.;image-keyboard-response;44;159361;0.0-3.0-1.20;true
4983;ImagesCoins/10L95.png;190;test;.;image-keyboard-response;46;164849;0.0-3.0-1.21;true
3434;ImagesCoins/10R97.5.png;188;test;,;image-keyboard-response;48;168786;0.0-3.0-1.22;true
2397;ImagesCoins/10R92.5.png;188;test;,;image-keyboard-response;50;171689;0.0-3.0-1.23;true
6664;ImagesCoins/10L102.5.png;188;test;,;image-keyboard-response;52;178857;0.0-3.0-1.24;true
2887;ImagesCoins/10L110.png;188;test;,;image-keyboard-response;54;182249;0.0-3.0-1.25;true
4217;ImagesCoins/10R105.png;190;test;.;image-keyboard-response;56;186968;0.0-3.0-1.26;true
5382;ImagesCoins/10L100.png;190;test;.;image-keyboard-response;58;192856;0.0-3.0-1.27;true
5224;ImagesCoins/10L107.5.png;188;test;,;image-keyboard-response;60;198585;0.0-3.0-1.28;true
9886;ImagesCoins/10R95.png;188;test;,;image-keyboard-response;62;208977;0.0-3.0-1.29;true
3223;ImagesCoins/10R110.png;190;test;.;image-keyboard-response;64;212705;0.0-3.0-1.30;true
2848;ImagesCoins/10L92.5.png;190;test;.;image-keyboard-response;66;216057;0.0-3.0-1.31;true
2776;ImagesCoins/10L90.png;190;test;.;image-keyboard-response;68;219337;0.0-3.0-1.32;true
2441;ImagesCoins/10L105.png;188;test;,;image-keyboard-response;70;222289;0.0-3.0-1.33;true
2480;ImagesCoins/10R90.png;188;test;,;image-keyboard-response;72;225273;0.0-3.0-1.34;true
2448;ImagesCoins/10R100.png;188;test;.;image-keyboard-response;74;228225;0.0-3.0-1.35;false
2705;ImagesCoins/10R102.5.png;188;test;.;image-keyboard-response;76;231433;0.0-3.0-1.36;false
5999;ImagesCoins/10R97.5.png;188;test;,;image-keyboard-response;78;237937;0.0-3.0-1.37;true
3695;ImagesCoins/10R107.5.png;190;test;.;image-keyboard-response;80;242137;0.0-3.0-1.38;true
3160;ImagesCoins/10L105.png;188;test;,;image-keyboard-response;82;245800;0.0-3.0-1.39;true
7120;ImagesCoins/10R105.png;190;test;.;image-keyboard-response;84;253424;0.0-3.0-1.40;true
2927;ImagesCoins/10L92.5.png;190;test;.;image-keyboard-response;86;256856;0.0-3.0-1.41;true
5593;ImagesCoins/10L100.png;190;test;.;image-keyboard-response;88;262953;0.0-3.0-1.42;true
7224;ImagesCoins/10L102.5.png;190;test;,;image-keyboard-response;90;270680;0.0-3.0-1.43;false
2528;ImagesCoins/10R110.png;190;test;.;image-keyboard-response;92;273713;0.0-3.0-1.44;true
2288;ImagesCoins/10L110.png;188;test;,;image-keyboard-response;94;276504;0.0-3.0-1.45;true
2608;ImagesCoins/10L95.png;190;test;.;image-keyboard-response;96;279617;0.0-3.0-1.46;true
4505;ImagesCoins/10L107.5.png;188;test;,;image-keyboard-response;98;284625;0.0-3.0-1.47;true
2919;ImagesCoins/10L90.png;190;test;.;image-keyboard-response;100;288049;0.0-3.0-1.48;true
6407;ImagesCoins/10R100.png;188;test;.;image-keyboard-response;102;294961;0.0-3.0-1.49;false
4455;ImagesCoins/10R95.png;188;test;,;image-keyboard-response;104;299921;0.0-3.0-1.50;true
5329;ImagesCoins/10L97.5.png;190;test;.;image-keyboard-response;106;305754;0.0-3.0-1.51;true
2303;ImagesCoins/10R90.png;188;test;,;image-keyboard-response;108;308561;0.0-3.0-1.52;true
2129;ImagesCoins/10R92.5.png;188;test;,;image-keyboard-response;110;311193;0.0-3.0-1.53;true
2767;ImagesCoins/10R107.5.png;190;test;.;image-keyboard-response;112;314465;0.0-3.0-1.54;true
2751;ImagesCoins/10R97.5.png;188;test;,;image-keyboard-response;114;317721;0.0-3.0-1.55;true
2073;ImagesCoins/10L107.5.png;188;test;,;image-keyboard-response;116;320297;0.0-3.0-1.56;true
2479;ImagesCoins/10L105.png;188;test;,;image-keyboard-response;118;323280;0.0-3.0-1.57;true
2088;ImagesCoins/10L90.png;190;test;.;image-keyboard-response;120;325872;0.0-3.0-1.58;true
2584;ImagesCoins/10R100.png;190;test;.;image-keyboard-response;122;328961;0.0-3.0-1.59;true
2928;ImagesCoins/10L110.png;188;test;,;image-keyboard-response;124;332393;0.0-3.0-1.60;true
2361;ImagesCoins/10R105.png;190;test;.;image-keyboard-response;126;335257;0.0-3.0-1.61;true
5825;ImagesCoins/10L100.png;190;test;.;image-keyboard-response;128;341585;0.0-3.0-1.62;true
3413;ImagesCoins/10R92.5.png;188;test;,;image-keyboard-response;130;345503;0.0-3.0-1.63;true
2987;ImagesCoins/10R110.png;190;test;.;image-keyboard-response;132;348992;0.0-3.0-1.64;true
3887;ImagesCoins/10R95.png;188;test;,;image-keyboard-response;134;353383;0.0-3.0-1.65;true
3601;ImagesCoins/10L97.5.png;190;test;.;image-keyboard-response;136;357488;0.0-3.0-1.66;true
2376;ImagesCoins/10L95.png;190;test;.;image-keyboard-response;138;360368;0.0-3.0-1.67;true
4943;ImagesCoins/10L102.5.png;190;test;,;image-keyboard-response;140;365816;0.0-3.0-1.68;false
3328;ImagesCoins/10R90.png;188;test;,;image-keyboard-response;142;369648;0.0-3.0-1.69;true
3066;ImagesCoins/10L92.5.png;190;test;.;image-keyboard-response;144;373217;0.0-3.0-1.70;true
2848;ImagesCoins/10R102.5.png;190;test;.;image-keyboard-response;146;376568;0.0-3.0-1.71;true
4576;ImagesCoins/10R107.5.png;190;test;.;image-keyboard-response;148;381648;0.0-3.0-1.72;true
2375;ImagesCoins/10L90.png;190;test;.;image-keyboard-response;150;384528;0.0-3.0-1.73;true
3544;ImagesCoins/10R97.5.png;190;test;,;image-keyboard-response;152;388576;0.0-3.0-1.74;false
2135;ImagesCoins/10R95.png;188;test;,;image-keyboard-response;154;391216;0.0-3.0-1.75;true
2935;ImagesCoins/10L95.png;190;test;.;image-keyboard-response;156;394657;0.0-3.0-1.76;true
1864;ImagesCoins/10R110.png;190;test;.;image-keyboard-response;158;397026;0.0-3.0-1.77;true
1791;ImagesCoins/10L92.5.png;190;test;.;image-keyboard-response;160;399320;0.0-3.0-1.78;true
2041;ImagesCoins/10R105.png;190;test;.;image-keyboard-response;162;401864;0.0-3.0-1.79;true
2126;ImagesCoins/10R92.5.png;188;test;,;image-keyboard-response;164;404496;0.0-3.0-1.80;true
2417;ImagesCoins/10L102.5.png;188;test;,;image-keyboard-response;166;407416;0.0-3.0-1.81;true
2456;ImagesCoins/10L110.png;188;test;,;image-keyboard-response;168;410377;0.0-3.0-1.82;true
3794;ImagesCoins/10L105.png;188;test;,;image-keyboard-response;170;414675;0.0-3.0-1.83;true
3444;ImagesCoins/10R102.5.png;190;test;.;image-keyboard-response;172;418624;0.0-3.0-1.84;true
1880;ImagesCoins/10L107.5.png;188;test;,;image-keyboard-response;174;421008;0.0-3.0-1.85;true
2248;ImagesCoins/10R90.png;188;test;,;image-keyboard-response;176;423761;0.0-3.0-1.86;true
2703;ImagesCoins/10L100.png;188;test;.;image-keyboard-response;178;426968;0.0-3.0-1.87;false
3562;ImagesCoins/10L97.5.png;190;test;.;image-keyboard-response;180;431035;0.0-3.0-1.88;true
2268;ImagesCoins/10R100.png;188;test;.;image-keyboard-response;182;433808;0.0-3.0-1.89;false
5799;ImagesDirect/VL110.png;190;test;,;image-keyboard-response;184;440112;0.0-4.0-1.0;false
7105;ImagesDirect/VL105.png;188;test;,;image-keyboard-response;186;447720;0.0-4.0-1.1;true
3225;ImagesSoccer/VL92.5.png;190;test;.;image-keyboard-response;188;451449;0.0-4.0-1.2;true
5087;ImagesDirect/VR92.5.png;190;test;,;image-keyboard-response;190;457040;0.0-4.0-1.3;false
2519;ImagesSoccer/VR102.5.png;190;test;.;image-keyboard-response;192;460064;0.0-4.0-1.4;true
3952;ImagesTennis/TL110.png;188;test;,;image-keyboard-response;194;464520;0.0-4.0-1.5;true
8200;ImagesTennis/TL102.5.png;190;test;,;image-keyboard-response;196;473225;0.0-4.0-1.6;false
6112;ImagesSoccer/VR90.png;188;test;,;image-keyboard-response;198;479841;0.0-4.0-1.7;true
2182;ImagesTennis/TR90.png;188;test;,;image-keyboard-response;200;482528;0.0-4.0-1.8;true
5665;ImagesTennis/TR97.5.png;190;test;,;image-keyboard-response;202;488696;0.0-4.0-1.9;false
2335;ImagesDirect/VL102.5.png;188;test;,;image-keyboard-response;204;491537;0.0-4.0-1.10;true
3266;ImagesDirect/VR100.png;190;test;.;image-keyboard-response;206;495305;0.0-4.0-1.11;true
1974;ImagesTennis/TL90.png;190;test;.;image-keyboard-response;208;497784;0.0-4.0-1.12;true
3225;ImagesTennis/TR110.png;190;test;.;image-keyboard-response;210;501513;0.0-4.0-1.13;true
2504;ImagesSoccer/VR100.png;190;test;.;image-keyboard-response;212;504522;0.0-4.0-1.14;true
5649;ImagesDirect/VL95.png;188;test;.;image-keyboard-response;214;510674;0.0-4.0-1.15;false
2270;ImagesDirect/VR107.5.png;190;test;.;image-keyboard-response;216;513449;0.0-4.0-1.16;true
2649;ImagesSoccer/VR107.5.png;190;test;.;image-keyboard-response;218;516600;0.0-4.0-1.17;true
6121;ImagesTennis/TL100.png;188;test;.;image-keyboard-response;220;523225;0.0-4.0-1.18;false
2737;ImagesTennis/TR107.5.png;190;test;.;image-keyboard-response;222;526465;0.0-4.0-1.19;true
2664;ImagesSoccer/VR97.5.png;190;test;,;image-keyboard-response;224;529633;0.0-4.0-1.20;false
2551;ImagesDirect/VL97.5.png;188;test;.;image-keyboard-response;226;532688;0.0-4.0-1.21;false
2816;ImagesSoccer/VR92.5.png;190;test;,;image-keyboard-response;228;536008;0.0-4.0-1.22;false
2087;ImagesSoccer/VR105.png;190;test;.;image-keyboard-response;230;538601;0.0-4.0-1.23;true
4609;ImagesSoccer/VL102.5.png;188;test;,;image-keyboard-response;232;543713;0.0-4.0-1.24;true
2576;ImagesSoccer/VR95.png;190;test;,;image-keyboard-response;234;546792;0.0-4.0-1.25;false
2071;ImagesSoccer/VL107.5.png;188;test;,;image-keyboard-response;236;549367;0.0-4.0-1.26;true
5795;ImagesSoccer/VL97.5.png;188;test;.;image-keyboard-response;238;555664;0.0-4.0-1.27;false
2704;ImagesSoccer/VL100.png;188;test;.;image-keyboard-response;240;558873;0.0-4.0-1.28;false
2018;ImagesDirect/VL107.5.png;188;test;,;image-keyboard-response;242;561393;0.0-4.0-1.29;true
2775;ImagesSoccer/VL90.png;190;test;.;image-keyboard-response;244;564672;0.0-4.0-1.30;true
3464;ImagesTennis/TL97.5.png;190;test;.;image-keyboard-response;246;568641;0.0-4.0-1.31;true
7912;ImagesTennis/TR105.png;190;test;.;image-keyboard-response;248;577057;0.0-4.0-1.32;true
3864;ImagesTennis/TR102.5.png;190;test;.;image-keyboard-response;250;581424;0.0-4.0-1.33;true
3567;ImagesTennis/TR100.png;190;test;.;image-keyboard-response;252;585496;0.0-4.0-1.34;true
4265;ImagesDirect/VL92.5.png;188;test;.;image-keyboard-response;254;590264;0.0-4.0-1.35;false
6218;ImagesTennis/TL105.png;188;test;,;image-keyboard-response;256;596985;0.0-4.0-1.36;true
3295;ImagesTennis/TR95.png;188;test;,;image-keyboard-response;258;600785;0.0-4.0-1.37;true
2561;ImagesSoccer/VR110.png;190;test;.;image-keyboard-response;260;603849;0.0-4.0-1.38;true
2566;ImagesTennis/TL92.5.png;190;test;.;image-keyboard-response;262;606921;0.0-4.0-1.39;true
2289;ImagesDirect/VR102.5.png;190;test;.;image-keyboard-response;264;609712;0.0-4.0-1.40;true
1689;ImagesDirect/VR110.png;190;test;.;image-keyboard-response;266;611904;0.0-4.0-1.41;true
2912;ImagesDirect/VL100.png;188;test;.;image-keyboard-response;268;615321;0.0-4.0-1.42;false
2606;ImagesDirect/VR105.png;190;test;.;image-keyboard-response;270;618432;0.0-4.0-1.43;true
3993;ImagesTennis/TR92.5.png;188;test;,;image-keyboard-response;272;622929;0.0-4.0-1.44;true
2799;ImagesDirect/VR95.png;190;test;,;image-keyboard-response;274;626233;0.0-4.0-1.45;false
1976;ImagesSoccer/VL110.png;188;test;,;image-keyboard-response;276;628712;0.0-4.0-1.46;true
2121;ImagesTennis/TL107.5.png;188;test;,;image-keyboard-response;278;631337;0.0-4.0-1.47;true
2560;ImagesTennis/TL95.png;190;test;.;image-keyboard-response;280;634401;0.0-4.0-1.48;true
8745;ImagesSoccer/VL95.png;190;test;.;image-keyboard-response;282;643649;0.0-4.0-1.49;true
3960;ImagesDirect/VR97.5.png;190;test;,;image-keyboard-response;284;648112;0.0-4.0-1.50;false
2625;ImagesDirect/VL90.png;190;test;.;image-keyboard-response;286;651240;0.0-4.0-1.51;true
1666;ImagesSoccer/VL105.png;188;test;,;image-keyboard-response;288;653409;0.0-4.0-1.52;true
3096;ImagesDirect/VR90.png;188;test;,;image-keyboard-response;290;657008;0.0-4.0-1.53;true
4807;ImagesDirect/VL90.png;190;test;.;image-keyboard-response;292;662320;0.0-4.0-1.54;true
1617;ImagesSoccer/VR107.5.png;190;test;.;image-keyboard-response;294;664441;0.0-4.0-1.55;true
2207;ImagesSoccer/VR100.png;190;test;.;image-keyboard-response;296;667151;0.0-4.0-1.56;true
2514;ImagesTennis/TL95.png;190;test;.;image-keyboard-response;298;670169;0.0-4.0-1.57;true
5767;ImagesSoccer/VR90.png;188;test;,;image-keyboard-response;300;676441;0.0-4.0-1.58;true
3279;ImagesTennis/TR102.5.png;190;test;.;image-keyboard-response;302;680223;0.0-4.0-1.59;true
2042;ImagesSoccer/VL105.png;188;test;,;image-keyboard-response;304;682768;0.0-4.0-1.60;true
3079;ImagesTennis/TL92.5.png;190;test;.;image-keyboard-response;306;686352;0.0-4.0-1.61;true
3001;ImagesDirect/VR90.png;188;test;,;image-keyboard-response;308;689856;0.0-4.0-1.62;true
6490;ImagesDirect/VR95.png;190;test;,;image-keyboard-response;310;696850;0.0-4.0-1.63;false
2422;ImagesDirect/VL97.5.png;188;test;.;image-keyboard-response;312;699776;0.0-4.0-1.64;false
2337;ImagesDirect/VL92.5.png;190;test;.;image-keyboard-response;314;702616;0.0-4.0-1.65;true
2119;ImagesSoccer/VL110.png;188;test;,;image-keyboard-response;316;705240;0.0-4.0-1.66;true
1839;ImagesDirect/VL107.5.png;188;test;,;image-keyboard-response;318;707584;0.0-4.0-1.67;true
3144;ImagesTennis/TR100.png;188;test;.;image-keyboard-response;320;711232;0.0-4.0-1.68;false
2791;ImagesSoccer/VL95.png;190;test;.;image-keyboard-response;322;714528;0.0-4.0-1.69;true
7289;ImagesDirect/VR92.5.png;188;test;,;image-keyboard-response;324;722320;0.0-4.0-1.70;true
2208;ImagesTennis/TR107.5.png;190;test;.;image-keyboard-response;326;725034;0.0-4.0-1.71;true
2646;ImagesTennis/TR90.png;188;test;,;image-keyboard-response;328;728184;0.0-4.0-1.72;true
1696;ImagesDirect/VR102.5.png;190;test;.;image-keyboard-response;330;730384;0.0-4.0-1.73;true
4624;ImagesSoccer/VL90.png;190;test;.;image-keyboard-response;332;735512;0.0-4.0-1.74;true
3431;ImagesSoccer/VL102.5.png;188;test;,;image-keyboard-response;334;739448;0.0-4.0-1.75;true
1879;ImagesDirect/VL105.png;188;test;,;image-keyboard-response;336;741833;0.0-4.0-1.76;true
1808;ImagesTennis/TL100.png;188;test;.;image-keyboard-response;338;744144;0.0-4.0-1.77;false
1833;ImagesTennis/TL90.png;190;test;.;image-keyboard-response;340;746481;0.0-4.0-1.78;true
1736;ImagesSoccer/VL107.5.png;188;test;,;image-keyboard-response;342;748720;0.0-4.0-1.79;true
3399;ImagesSoccer/VR95.png;188;test;,;image-keyboard-response;344;752625;0.0-4.0-1.80;true
1655;ImagesDirect/VL100.png;188;test;.;image-keyboard-response;346;754784;0.0-4.0-1.81;false
1744;ImagesTennis/TR92.5.png;188;test;,;image-keyboard-response;348;757032;0.0-4.0-1.82;true
1889;ImagesTennis/TL102.5.png;188;test;,;image-keyboard-response;350;759424;0.0-4.0-1.83;true
1608;ImagesTennis/TR97.5.png;188;test;,;image-keyboard-response;352;761536;0.0-4.0-1.84;true
1761;ImagesDirect/VR107.5.png;190;test;.;image-keyboard-response;354;763801;0.0-4.0-1.85;true
1904;ImagesSoccer/VL97.5.png;188;test;.;image-keyboard-response;356;766208;0.0-4.0-1.86;false
1552;ImagesSoccer/VL100.png;188;test;.;image-keyboard-response;358;768264;0.0-4.0-1.87;false
4136;ImagesSoccer/VR92.5.png;188;test;,;image-keyboard-response;360;772904;0.0-4.0-1.88;true
1455;ImagesTennis/TL110.png;188;test;,;image-keyboard-response;362;774864;0.0-4.0-1.89;true
1664;ImagesDirect/VR100.png;190;test;.;image-keyboard-response;364;777032;0.0-4.0-1.90;true
1320;ImagesSoccer/VR105.png;190;test;.;image-keyboard-response;366;778856;0.0-4.0-1.91;true
1354;ImagesDirect/VR105.png;190;test;.;image-keyboard-response;368;780713;0.0-4.0-1.92;true
3480;ImagesSoccer/VL92.5.png;188;test;.;image-keyboard-response;370;784696;0.0-4.0-1.93;false
5560;ImagesTennis/TR95.png;188;test;,;image-keyboard-response;372;790760;0.0-4.0-1.94;true
3511;ImagesSoccer/VR97.5.png;190;test;,;image-keyboard-response;374;794776;0.0-4.0-1.95;false
1584;ImagesTennis/TR110.png;190;test;.;image-keyboard-response;376;796864;0.0-4.0-1.96;true
3801;ImagesDirect/VL110.png;188;test;,;image-keyboard-response;378;801168;0.0-4.0-1.97;true
1896;ImagesSoccer/VR102.5.png;190;test;.;image-keyboard-response;380;803568;0.0-4.0-1.98;true
5072;ImagesTennis/TL107.5.png;190;test;,;image-keyboard-response;382;809145;0.0-4.0-1.99;false
2527;ImagesDirect/VL95.png;188;test;.;image-keyboard-response;384;812176;0.0-4.0-1.100;false
2223;ImagesTennis/TL97.5.png;190;test;.;image-keyboard-response;386;814904;0.0-4.0-1.101;true
1882;ImagesTennis/TR105.png;190;test;.;image-keyboard-response;388;817288;0.0-4.0-1.102;true
1703;ImagesSoccer/VR110.png;190;test;.;image-keyboard-response;390;819496;0.0-4.0-1.103;true
1664;ImagesTennis/TL105.png;188;test;,;image-keyboard-response;392;821664;0.0-4.0-1.104;true
4072;ImagesDirect/VR97.5.png;190;test;,;image-keyboard-response;394;826240;0.0-4.0-1.105;false
1592;ImagesDirect/VL102.5.png;188;test;,;image-keyboard-response;396;828336;0.0-4.0-1.106;true
1592;ImagesDirect/VR110.png;190;test;.;image-keyboard-response;398;830433;0.0-4.0-1.107;true
4431;ImagesTennis/TR102.5.png;190;test;.;image-keyboard-response;400;835368;0.0-4.0-1.108;true
2016;ImagesTennis/TL92.5.png;190;test;.;image-keyboard-response;402;837888;0.0-4.0-1.109;true
1688;ImagesTennis/TR95.png;188;test;,;image-keyboard-response;404;840081;0.0-4.0-1.110;true
1960;ImagesTennis/TR92.5.png;188;test;,;image-keyboard-response;406;842545;0.0-4.0-1.111;true
1983;ImagesSoccer/VR107.5.png;190;test;.;image-keyboard-response;408;845032;0.0-4.0-1.112;true
2568;ImagesSoccer/VR97.5.png;190;test;,;image-keyboard-response;410;848104;0.0-4.0-1.113;false
1552;ImagesDirect/VL102.5.png;188;test;,;image-keyboard-response;412;850160;0.0-4.0-1.114;true
2992;ImagesDirect/VL110.png;188;test;,;image-keyboard-response;414;853656;0.0-4.0-1.115;true
4446;ImagesSoccer/VL95.png;188;test;.;image-keyboard-response;416;858608;0.0-4.0-1.116;false
1536;ImagesSoccer/VL102.5.png;188;test;,;image-keyboard-response;418;860649;0.0-4.0-1.117;true
2256;ImagesDirect/VR105.png;190;test;.;image-keyboard-response;420;863408;0.0-4.0-1.118;true
1399;ImagesDirect/VL105.png;188;test;,;image-keyboard-response;422;865312;0.0-4.0-1.119;true
1464;ImagesSoccer/VL107.5.png;188;test;,;image-keyboard-response;424;867280;0.0-4.0-1.120;true
3169;ImagesDirect/VR92.5.png;188;test;,;image-keyboard-response;426;870952;0.0-4.0-1.121;true
2382;ImagesSoccer/VR95.png;188;test;,;image-keyboard-response;428;873840;0.0-4.0-1.122;true
6312;ImagesDirect/VR97.5.png;190;test;,;image-keyboard-response;430;880656;0.0-4.0-1.123;false
2007;ImagesDirect/VR102.5.png;190;test;.;image-keyboard-response;432;883168;0.0-4.0-1.124;true
3216;ImagesTennis/TR100.png;188;test;.;image-keyboard-response;434;886888;0.0-4.0-1.125;false
1872;ImagesTennis/TR110.png;190;test;.;image-keyboard-response;436;889264;0.0-4.0-1.126;true
2959;ImagesDirect/VR90.png;188;test;,;image-keyboard-response;438;892728;0.0-4.0-1.127;true
2215;ImagesSoccer/VL105.png;188;test;,;image-keyboard-response;440;895448;0.0-4.0-1.128;true
2729;ImagesTennis/TL95.png;190;test;.;image-keyboard-response;442;898680;0.0-4.0-1.129;true
2730;ImagesDirect/VL92.5.png;190;test;.;image-keyboard-response;444;901912;0.0-4.0-1.130;true
1928;ImagesSoccer/VR105.png;190;test;.;image-keyboard-response;446;904344;0.0-4.0-1.131;true
1912;ImagesTennis/TL90.png;190;test;.;image-keyboard-response;448;906760;0.0-4.0-1.132;true
2639;ImagesTennis/TL107.5.png;188;test;,;image-keyboard-response;450;909904;0.0-4.0-1.133;true
2266;ImagesSoccer/VR102.5.png;190;test;.;image-keyboard-response;452;912673;0.0-4.0-1.134;true
3335;ImagesDirect/VL95.png;188;test;.;image-keyboard-response;454;916512;0.0-4.0-1.135;false
3176;ImagesSoccer/VL92.5.png;190;test;.;image-keyboard-response;456;920192;0.0-4.0-1.136;true
1976;ImagesSoccer/VR110.png;190;test;.;image-keyboard-response;458;922673;0.0-4.0-1.137;true
3280;ImagesTennis/TL102.5.png;188;test;,;image-keyboard-response;460;926457;0.0-4.0-1.138;true
2247;ImagesTennis/TR107.5.png;190;test;.;image-keyboard-response;462;929208;0.0-4.0-1.139;true
2320;ImagesDirect/VL100.png;188;test;.;image-keyboard-response;464;932032;0.0-4.0-1.140;false
1801;ImagesSoccer/VL97.5.png;188;test;.;image-keyboard-response;466;934336;0.0-4.0-1.141;false
5272;ImagesSoccer/VR100.png;190;test;.;image-keyboard-response;468;940112;0.0-4.0-1.142;true
1576;ImagesTennis/TL110.png;188;test;,;image-keyboard-response;470;942192;0.0-4.0-1.143;true
1762;ImagesDirect/VR95.png;188;test;,;image-keyboard-response;472;944458;0.0-4.0-1.144;true
1904;ImagesDirect/VL97.5.png;188;test;.;image-keyboard-response;474;946864;0.0-4.0-1.145;false
2849;ImagesSoccer/VR90.png;188;test;,;image-keyboard-response;476;950216;0.0-4.0-1.146;true
1911;ImagesTennis/TL105.png;188;test;,;image-keyboard-response;478;952632;0.0-4.0-1.147;true
5001;ImagesTennis/TR105.png;190;test;.;image-keyboard-response;480;958136;0.0-4.0-1.148;true
1975;ImagesTennis/TR97.5.png;188;test;,;image-keyboard-response;482;960616;0.0-4.0-1.149;true
2360;ImagesSoccer/VR92.5.png;188;test;,;image-keyboard-response;484;963481;0.0-4.0-1.150;true
2135;ImagesSoccer/VL110.png;188;test;,;image-keyboard-response;486;966119;0.0-4.0-1.151;true
1984;ImagesDirect/VR110.png;190;test;.;image-keyboard-response;488;968607;0.0-4.0-1.152;true
2151;ImagesSoccer/VL100.png;188;test;.;image-keyboard-response;490;971264;0.0-4.0-1.153;false
1785;ImagesDirect/VR107.5.png;190;test;.;image-keyboard-response;492;973552;0.0-4.0-1.154;true
4344;ImagesTennis/TR90.png;188;test;,;image-keyboard-response;494;978400;0.0-4.0-1.155;true
2560;ImagesTennis/TL97.5.png;190;test;.;image-keyboard-response;496;981463;0.0-4.0-1.156;true
2664;ImagesDirect/VR100.png;190;test;.;image-keyboard-response;498;984631;0.0-4.0-1.157;true
2664;ImagesTennis/TL100.png;190;test;.;image-keyboard-response;500;987799;0.0-4.0-1.158;true
2593;ImagesDirect/VL90.png;190;test;.;image-keyboard-response;502;990896;0.0-4.0-1.159;true
2928;ImagesDirect/VL107.5.png;188;test;,;image-keyboard-response;504;994328;0.0-4.0-1.160;true
1880;ImagesSoccer/VL90.png;190;test;.;image-keyboard-response;506;996711;0.0-4.0-1.161;true
3384;ImagesSoccer/VL90.png;188;test;.;image-keyboard-response;508;1000599;0.0-4.0-1.162;false
2455;ImagesSoccer/VR110.png;190;test;.;image-keyboard-response;510;1003559;0.0-4.0-1.163;true
1952;ImagesTennis/TL90.png;190;test;.;image-keyboard-response;512;1006015;0.0-4.0-1.164;true
2751;ImagesTennis/TR97.5.png;190;test;,;image-keyboard-response;514;1009270;0.0-4.0-1.165;false
3122;ImagesDirect/VR100.png;190;test;.;image-keyboard-response;516;1012895;0.0-4.0-1.166;true
3319;ImagesTennis/TL95.png;190;test;.;image-keyboard-response;518;1016719;0.0-4.0-1.167;true
2007;ImagesSoccer/VR90.png;188;test;,;image-keyboard-response;520;1019231;0.0-4.0-1.168;true
1840;ImagesDirect/VR110.png;190;test;.;image-keyboard-response;522;1021575;0.0-4.0-1.169;true
2912;ImagesTennis/TR100.png;188;test;.;image-keyboard-response;524;1024991;0.0-4.0-1.170;false
1823;ImagesSoccer/VR102.5.png;190;test;.;image-keyboard-response;526;1027320;0.0-4.0-1.171;true
3392;ImagesDirect/VL95.png;188;test;.;image-keyboard-response;528;1031216;0.0-4.0-1.172;false
2201;ImagesTennis/TL105.png;188;test;,;image-keyboard-response;530;1033920;0.0-4.0-1.173;true
3000;ImagesTennis/TL97.5.png;190;test;.;image-keyboard-response;532;1037424;0.0-4.0-1.174;true
2351;ImagesTennis/TR105.png;190;test;.;image-keyboard-response;534;1040280;0.0-4.0-1.175;true
1984;ImagesDirect/VR97.5.png;190;test;,;image-keyboard-response;536;1042768;0.0-4.0-1.176;false
2848;ImagesSoccer/VL107.5.png;188;test;,;image-keyboard-response;538;1046120;0.0-4.0-1.177;true
11091;ImagesSoccer/VR105.png;190;test;.;image-keyboard-response;540;1057720;0.0-4.0-1.178;true
2127;ImagesTennis/TR107.5.png;190;test;.;image-keyboard-response;542;1060352;0.0-4.0-1.179;true
3776;ImagesDirect/VL97.5.png;190;test;.;image-keyboard-response;544;1064631;0.0-4.0-1.180;true
2063;ImagesSoccer/VL100.png;188;test;.;image-keyboard-response;546;1067200;0.0-4.0-1.181;false
2416;ImagesSoccer/VL97.5.png;190;test;.;image-keyboard-response;548;1070120;0.0-4.0-1.182;true
5535;ImagesTennis/TR110.png;190;test;.;image-keyboard-response;550;1076160;0.0-4.0-1.183;true
7625;ImagesTennis/TL102.5.png;188;test;,;image-keyboard-response;552;1084288;0.0-4.0-1.184;true
2143;ImagesDirect/VR102.5.png;190;test;.;image-keyboard-response;554;1086935;0.0-4.0-1.185;true
2057;ImagesDirect/VR90.png;188;test;,;image-keyboard-response;556;1089495;0.0-4.0-1.186;true
1833;ImagesTennis/TL110.png;188;test;,;image-keyboard-response;558;1091831;0.0-4.0-1.187;true
2144;ImagesTennis/TL107.5.png;188;test;,;image-keyboard-response;560;1094479;0.0-4.0-1.188;true
3249;ImagesDirect/VR95.png;190;test;,;image-keyboard-response;562;1098231;0.0-4.0-1.189;false
1712;ImagesDirect/VR107.5.png;190;test;.;image-keyboard-response;564;1100447;0.0-4.0-1.190;true
2888;ImagesDirect/VR92.5.png;188;test;,;image-keyboard-response;566;1103839;0.0-4.0-1.191;true
2160;ImagesSoccer/VR97.5.png;190;test;,;image-keyboard-response;568;1106503;0.0-4.0-1.192;false
3144;ImagesTennis/TR95.png;188;test;,;image-keyboard-response;570;1110151;0.0-4.0-1.193;true
2777;ImagesTennis/TL100.png;190;test;.;image-keyboard-response;572;1113431;0.0-4.0-1.194;true
1712;ImagesDirect/VR105.png;190;test;.;image-keyboard-response;574;1115647;0.0-4.0-1.195;true
5824;ImagesTennis/TR102.5.png;188;test;.;image-keyboard-response;576;1121976;0.0-4.0-1.196;false
1992;ImagesDirect/VL102.5.png;188;test;,;image-keyboard-response;578;1124472;0.0-4.0-1.197;true
4128;ImagesSoccer/VL95.png;190;test;.;image-keyboard-response;580;1129103;0.0-4.0-1.198;true
1985;ImagesTennis/TL92.5.png;190;test;.;image-keyboard-response;582;1131592;0.0-4.0-1.199;true
2065;ImagesTennis/TR90.png;188;test;,;image-keyboard-response;584;1134159;0.0-4.0-1.200;true
1967;ImagesSoccer/VL92.5.png;190;test;.;image-keyboard-response;586;1136631;0.0-4.0-1.201;true
1600;ImagesSoccer/VR100.png;190;test;.;image-keyboard-response;588;1138735;0.0-4.0-1.202;true
1736;ImagesDirect/VL100.png;188;test;.;image-keyboard-response;590;1140974;0.0-4.0-1.203;false
1931;ImagesDirect/VL92.5.png;190;test;.;image-keyboard-response;592;1143407;0.0-4.0-1.204;true
1924;ImagesSoccer/VL110.png;188;test;,;image-keyboard-response;594;1145839;0.0-4.0-1.205;true
10106;ImagesSoccer/VR107.5.png;190;test;.;image-keyboard-response;596;1156448;0.0-4.0-1.206;true
2350;ImagesTennis/TR92.5.png;188;test;,;image-keyboard-response;598;1159304;0.0-4.0-1.207;true
1641;ImagesDirect/VL107.5.png;188;test;,;image-keyboard-response;600;1161448;0.0-4.0-1.208;true
2536;ImagesSoccer/VL102.5.png;188;test;,;image-keyboard-response;602;1164488;0.0-4.0-1.209;true
3095;ImagesSoccer/VR92.5.png;188;test;,;image-keyboard-response;604;1168087;0.0-4.0-1.210;true
1760;ImagesSoccer/VL105.png;188;test;,;image-keyboard-response;606;1170352;0.0-4.0-1.211;true
6537;ImagesDirect/VL110.png;188;test;,;image-keyboard-response;608;1177392;0.0-4.0-1.212;true
2159;ImagesDirect/VL90.png;190;test;.;image-keyboard-response;610;1180056;0.0-4.0-1.213;true
3400;ImagesSoccer/VR95.png;190;test;,;image-keyboard-response;612;1183960;0.0-4.0-1.214;false
1973;ImagesDirect/VL105.png;190;test;,;image-keyboard-response;614;1186440;0.0-4.0-1.215;false
3696;ImagesTennis/TL95.png;190;test;.;image-keyboard-response;616;1190640;0.0-4.0-1.216;true
1863;ImagesSoccer/VL100.png;188;test;.;image-keyboard-response;618;1193008;0.0-4.0-1.217;false
1806;ImagesTennis/TL102.5.png;188;test;,;image-keyboard-response;620;1195320;0.0-4.0-1.218;true
2504;ImagesSoccer/VR107.5.png;190;test;.;image-keyboard-response;622;1198328;0.0-4.0-1.219;true
2512;ImagesDirect/VL90.png;190;test;.;image-keyboard-response;624;1201344;0.0-4.0-1.220;true
3114;ImagesTennis/TL107.5.png;188;test;,;image-keyboard-response;626;1204960;0.0-4.0-1.221;true
2632;ImagesTennis/TR97.5.png;188;test;,;image-keyboard-response;628;1208095;0.0-4.0-1.222;true
4537;ImagesSoccer/VL92.5.png;188;test;.;image-keyboard-response;630;1213136;0.0-4.0-1.223;false
4006;ImagesSoccer/VL97.5.png;188;test;.;image-keyboard-response;632;1217647;0.0-4.0-1.224;false
3312;ImagesSoccer/VR92.5.png;188;test;,;image-keyboard-response;634;1221463;0.0-4.0-1.225;true
3808;ImagesTennis/TR105.png;190;test;.;image-keyboard-response;636;1225775;0.0-4.0-1.226;true
1887;ImagesSoccer/VR97.5.png;190;test;,;image-keyboard-response;638;1228167;0.0-4.0-1.227;false
2592;ImagesTennis/TL90.png;190;test;.;image-keyboard-response;640;1231263;0.0-4.0-1.228;true
1560;ImagesSoccer/VR100.png;190;test;.;image-keyboard-response;642;1233327;0.0-4.0-1.229;true
2383;ImagesTennis/TL97.5.png;190;test;.;image-keyboard-response;644;1236216;0.0-4.0-1.230;true
2175;ImagesSoccer/VL105.png;188;test;,;image-keyboard-response;646;1238896;0.0-4.0-1.231;true
2241;ImagesDirect/VR97.5.png;188;test;,;image-keyboard-response;648;1241639;0.0-4.0-1.232;true
3552;ImagesSoccer/VR90.png;188;test;,;image-keyboard-response;650;1245695;0.0-4.0-1.233;true
4039;ImagesSoccer/VL110.png;188;test;,;image-keyboard-response;652;1250239;0.0-4.0-1.234;true
2270;ImagesTennis/TR95.png;188;test;,;image-keyboard-response;654;1253016;0.0-4.0-1.235;true
1713;ImagesDirect/VL110.png;188;test;,;image-keyboard-response;656;1255231;0.0-4.0-1.236;true
2560;ImagesDirect/VL107.5.png;188;test;,;image-keyboard-response;658;1258295;0.0-4.0-1.237;true
6647;ImagesSoccer/VL102.5.png;188;test;,;image-keyboard-response;660;1265447;0.0-4.0-1.238;true
2335;ImagesSoccer/VL107.5.png;188;test;,;image-keyboard-response;662;1268287;0.0-4.0-1.239;true
2737;ImagesDirect/VL102.5.png;188;test;,;image-keyboard-response;664;1271527;0.0-4.0-1.240;true
2208;ImagesDirect/VR105.png;190;test;.;image-keyboard-response;666;1274238;0.0-4.0-1.241;true
1843;ImagesDirect/VR107.5.png;190;test;.;image-keyboard-response;668;1276583;0.0-4.0-1.242;true
3000;ImagesDirect/VR100.png;190;test;.;image-keyboard-response;670;1280087;0.0-4.0-1.243;true
1991;ImagesDirect/VL95.png;190;test;.;image-keyboard-response;672;1282583;0.0-4.0-1.244;true
1824;ImagesSoccer/VR105.png;190;test;.;image-keyboard-response;674;1284912;0.0-4.0-1.245;true
1552;ImagesSoccer/VR110.png;190;test;.;image-keyboard-response;676;1286967;0.0-4.0-1.246;true
2009;ImagesDirect/VR90.png;188;test;,;image-keyboard-response;678;1289480;0.0-4.0-1.247;true
2200;ImagesSoccer/VR95.png;188;test;,;image-keyboard-response;680;1292183;0.0-4.0-1.248;true
2913;ImagesTennis/TL100.png;190;test;.;image-keyboard-response;682;1295599;0.0-4.0-1.249;true
3208;ImagesTennis/TL110.png;188;test;,;image-keyboard-response;684;1299310;0.0-4.0-1.250;true
1706;ImagesDirect/VL105.png;188;test;,;image-keyboard-response;686;1301519;0.0-4.0-1.251;true
2024;ImagesSoccer/VL90.png;190;test;.;image-keyboard-response;688;1304047;0.0-4.0-1.252;true
1621;ImagesSoccer/VR102.5.png;190;test;.;image-keyboard-response;690;1306183;0.0-4.0-1.253;true
2778;ImagesDirect/VR92.5.png;188;test;,;image-keyboard-response;692;1309464;0.0-4.0-1.254;true
2161;ImagesSoccer/VL95.png;190;test;.;image-keyboard-response;694;1312129;0.0-4.0-1.255;true
1541;ImagesDirect/VR110.png;190;test;.;image-keyboard-response;696;1314174;0.0-4.0-1.256;true
1682;ImagesTennis/TR92.5.png;188;test;,;image-keyboard-response;698;1316359;0.0-4.0-1.257;true
4530;ImagesTennis/TR102.5.png;190;test;.;image-keyboard-response;700;1321393;0.0-4.0-1.258;true
1534;ImagesTennis/TR90.png;188;test;,;image-keyboard-response;702;1323431;0.0-4.0-1.259;true
1688;ImagesTennis/TL105.png;188;test;,;image-keyboard-response;704;1325624;0.0-4.0-1.260;true
5936;ImagesTennis/TR100.png;188;test;.;image-keyboard-response;706;1332063;0.0-4.0-1.261;false
3479;ImagesDirect/VR95.png;190;test;,;image-keyboard-response;708;1336047;0.0-4.0-1.262;false
1664;ImagesDirect/VL100.png;190;test;.;image-keyboard-response;710;1338215;0.0-4.0-1.263;true
1359;ImagesTennis/TR107.5.png;190;test;.;image-keyboard-response;712;1340079;0.0-4.0-1.264;true
1273;ImagesTennis/TR110.png;190;test;.;image-keyboard-response;714;1341855;0.0-4.0-1.265;true
1743;ImagesDirect/VR102.5.png;190;test;.;image-keyboard-response;716;1344103;0.0-4.0-1.266;true
2136;ImagesTennis/TL92.5.png;190;test;.;image-keyboard-response;718;1346744;0.0-4.0-1.267;true
1977;ImagesDirect/VL92.5.png;190;test;.;image-keyboard-response;720;1349223;0.0-4.0-1.268;true
2056;ImagesDirect/VL97.5.png;188;test;.;image-keyboard-response;722;1351784;0.0-4.0-1.269;false
