"rt","stimulus","key_press","test_part","correct_response","trial_type","trial_index","time_elapsed","internal_node_id","correct"
"3825","ImagesCoins/10L100.png","188","test",".","image-keyboard-response","4","34610","0.0-3.0-1.0","false"
"1732","ImagesCoins/10R102.5.png","190","test",".","image-keyboard-response","6","36844","0.0-3.0-1.1","true"
"1657","ImagesCoins/10R110.png","190","test",".","image-keyboard-response","8","39003","0.0-3.0-1.2","true"
"1916","ImagesCoins/10R90.png","188","test",",","image-keyboard-response","10","41420","0.0-3.0-1.3","true"
"1043","ImagesCoins/10L110.png","188","test",",","image-keyboard-response","12","42965","0.0-3.0-1.4","true"
"1104","ImagesCoins/10R105.png","190","test",".","image-keyboard-response","14","44571","0.0-3.0-1.5","true"
"1986","ImagesCoins/10L92.5.png","190","test",".","image-keyboard-response","16","47059","0.0-3.0-1.6","true"
"836","ImagesCoins/10L107.5.png","188","test",",","image-keyboard-response","18","48396","0.0-3.0-1.7","true"
"1430","ImagesCoins/10R92.5.png","188","test",",","image-keyboard-response","20","50327","0.0-3.0-1.8","true"
"1581","ImagesCoins/10L95.png","190","test",".","image-keyboard-response","22","52410","0.0-3.0-1.9","true"
"1984","ImagesCoins/10R97.5.png","190","test",",","image-keyboard-response","24","54897","0.0-3.0-1.10","false"
"2710","ImagesCoins/10R95.png","188","test",",","image-keyboard-response","26","58108","0.0-3.0-1.11","true"
"899","ImagesCoins/10L90.png","190","test",".","image-keyboard-response","28","59509","0.0-3.0-1.12","true"
"1165","ImagesCoins/10L105.png","188","test",",","image-keyboard-response","30","61176","0.0-3.0-1.13","true"
"837","ImagesCoins/10R100.png","190","test",".","image-keyboard-response","32","62514","0.0-3.0-1.14","true"
"745","ImagesCoins/10R107.5.png","190","test",".","image-keyboard-response","34","63760","0.0-3.0-1.15","true"
"2376","ImagesCoins/10L97.5.png","190","test",".","image-keyboard-response","36","66639","0.0-3.0-1.16","true"
"1210","ImagesCoins/10L102.5.png","188","test",",","image-keyboard-response","38","68352","0.0-3.0-1.17","true"
"791","ImagesCoins/10R110.png","190","test",".","image-keyboard-response","40","69646","0.0-3.0-1.18","true"
"2547","ImagesCoins/10R90.png","188","test",",","image-keyboard-response","42","72695","0.0-3.0-1.19","true"
"804","ImagesCoins/10L110.png","188","test",",","image-keyboard-response","44","74001","0.0-3.0-1.20","true"
"1098","ImagesCoins/10R97.5.png","190","test",",","image-keyboard-response","46","75601","0.0-3.0-1.21","false"
"763","ImagesCoins/10R105.png","190","test",".","image-keyboard-response","48","76867","0.0-3.0-1.22","true"
"667","ImagesCoins/10R107.5.png","190","test",".","image-keyboard-response","50","78036","0.0-3.0-1.23","true"
"901","ImagesCoins/10L95.png","190","test",".","image-keyboard-response","52","79440","0.0-3.0-1.24","true"
"1402","ImagesCoins/10L102.5.png","188","test",",","image-keyboard-response","54","81344","0.0-3.0-1.25","true"
"873","ImagesCoins/10L107.5.png","188","test",",","image-keyboard-response","56","82720","0.0-3.0-1.26","true"
"1241","ImagesCoins/10R95.png","190","test",",","image-keyboard-response","58","84465","0.0-3.0-1.27","false"
"886","ImagesCoins/10R100.png","190","test",".","image-keyboard-response","60","85852","0.0-3.0-1.28","true"
"977","ImagesCoins/10L92.5.png","190","test",".","image-keyboard-response","62","87330","0.0-3.0-1.29","true"
"779","ImagesCoins/10L105.png","188","test",",","image-keyboard-response","64","88610","0.0-3.0-1.30","true"
"1753","ImagesCoins/10L97.5.png","188","test",".","image-keyboard-response","66","90865","0.0-3.0-1.31","false"
"917","ImagesCoins/10L100.png","188","test",".","image-keyboard-response","68","92284","0.0-3.0-1.32","false"
"770","ImagesCoins/10R102.5.png","190","test",".","image-keyboard-response","70","93559","0.0-3.0-1.33","true"
"1012","ImagesCoins/10L90.png","190","test",".","image-keyboard-response","72","95072","0.0-3.0-1.34","true"
"1252","ImagesCoins/10R92.5.png","188","test",",","image-keyboard-response","74","96826","0.0-3.0-1.35","true"
"763","ImagesCoins/10L95.png","190","test",".","image-keyboard-response","76","98091","0.0-3.0-1.36","true"
"1394","ImagesCoins/10R95.png","190","test",",","image-keyboard-response","78","99987","0.0-3.0-1.37","false"
"2477","ImagesCoins/10R92.5.png","188","test",",","image-keyboard-response","80","102967","0.0-3.0-1.38","true"
"1314","ImagesCoins/10R90.png","188","test",",","image-keyboard-response","82","104782","0.0-3.0-1.39","true"
"803","ImagesCoins/10L102.5.png","188","test",",","image-keyboard-response","84","106086","0.0-3.0-1.40","true"
"1138","ImagesCoins/10L105.png","188","test",",","image-keyboard-response","86","107725","0.0-3.0-1.41","true"
"1364","ImagesCoins/10L97.5.png","188","test",".","image-keyboard-response","88","109592","0.0-3.0-1.42","false"
"1058","ImagesCoins/10R110.png","190","test",".","image-keyboard-response","90","111152","0.0-3.0-1.43","true"
"1446","ImagesCoins/10R102.5.png","190","test",".","image-keyboard-response","92","113099","0.0-3.0-1.44","true"
"1165","ImagesCoins/10L107.5.png","188","test",",","image-keyboard-response","94","114766","0.0-3.0-1.45","true"
"924","ImagesCoins/10R107.5.png","190","test",".","image-keyboard-response","96","116192","0.0-3.0-1.46","true"
"699","ImagesCoins/10L110.png","188","test",",","image-keyboard-response","98","117393","0.0-3.0-1.47","true"
"644","ImagesCoins/10L90.png","190","test",".","image-keyboard-response","100","118539","0.0-3.0-1.48","true"
"777","ImagesCoins/10L100.png","188","test",".","image-keyboard-response","102","119817","0.0-3.0-1.49","false"
"788","ImagesCoins/10L92.5.png","190","test",".","image-keyboard-response","104","121107","0.0-3.0-1.50","true"
"1059","ImagesCoins/10R97.5.png","190","test",",","image-keyboard-response","106","122668","0.0-3.0-1.51","false"
"686","ImagesCoins/10R100.png","190","test",".","image-keyboard-response","108","123856","0.0-3.0-1.52","true"
"826","ImagesCoins/10R105.png","190","test",".","image-keyboard-response","110","125185","0.0-3.0-1.53","true"
"1243","ImagesCoins/10R105.png","190","test",".","image-keyboard-response","112","126929","0.0-3.0-1.54","true"
"723","ImagesCoins/10R102.5.png","190","test",".","image-keyboard-response","114","128154","0.0-3.0-1.55","true"
"731","ImagesCoins/10R110.png","190","test",".","image-keyboard-response","116","129387","0.0-3.0-1.56","true"
"1690","ImagesCoins/10L102.5.png","188","test",",","image-keyboard-response","118","131578","0.0-3.0-1.57","true"
"3143","ImagesCoins/10L97.5.png","190","test",".","image-keyboard-response","120","135223","0.0-3.0-1.58","true"
"1199","ImagesCoins/10R90.png","188","test",",","image-keyboard-response","122","136925","0.0-3.0-1.59","true"
"3982","ImagesCoins/10R92.5.png","188","test",",","image-keyboard-response","124","141409","0.0-3.0-1.60","true"
"754","ImagesCoins/10L110.png","188","test",",","image-keyboard-response","126","142665","0.0-3.0-1.61","true"
"1277","ImagesCoins/10L105.png","188","test",",","image-keyboard-response","128","144443","0.0-3.0-1.62","true"
"1296","ImagesCoins/10R100.png","190","test",".","image-keyboard-response","130","146242","0.0-3.0-1.63","true"
"1105","ImagesCoins/10L90.png","190","test",".","image-keyboard-response","132","147848","0.0-3.0-1.64","true"
"604","ImagesCoins/10R107.5.png","190","test",".","image-keyboard-response","134","148955","0.0-3.0-1.65","true"
"1475","ImagesCoins/10L100.png","188","test",".","image-keyboard-response","136","150931","0.0-3.0-1.66","false"
"1323","ImagesCoins/10L95.png","190","test",".","image-keyboard-response","138","152756","0.0-3.0-1.67","true"
"896","ImagesCoins/10L92.5.png","190","test",".","image-keyboard-response","140","154154","0.0-3.0-1.68","true"
"792","ImagesCoins/10R97.5.png","190","test",",","image-keyboard-response","142","155449","0.0-3.0-1.69","false"
"698","ImagesCoins/10L107.5.png","188","test",",","image-keyboard-response","144","156650","0.0-3.0-1.70","true"
"2596","ImagesCoins/10R95.png","190","test",",","image-keyboard-response","146","159747","0.0-3.0-1.71","false"
"804","ImagesCoins/10L105.png","188","test",",","image-keyboard-response","148","161053","0.0-3.0-1.72","true"
"1469","ImagesCoins/10R95.png","188","test",",","image-keyboard-response","150","163024","0.0-3.0-1.73","true"
"1978","ImagesCoins/10R92.5.png","188","test",",","image-keyboard-response","152","165505","0.0-3.0-1.74","true"
"810","ImagesCoins/10R107.5.png","190","test",".","image-keyboard-response","154","166817","0.0-3.0-1.75","true"
"775","ImagesCoins/10L110.png","188","test",",","image-keyboard-response","156","168094","0.0-3.0-1.76","true"
"2046","ImagesCoins/10R90.png","188","test",",","image-keyboard-response","158","170642","0.0-3.0-1.77","true"
"1007","ImagesCoins/10R105.png","190","test",".","image-keyboard-response","160","172150","0.0-3.0-1.78","true"
"965","ImagesCoins/10R97.5.png","190","test",",","image-keyboard-response","162","173616","0.0-3.0-1.79","false"
"784","ImagesCoins/10R110.png","190","test",".","image-keyboard-response","164","174901","0.0-3.0-1.80","true"
"3202","ImagesCoins/10L90.png","190","test",".","image-keyboard-response","166","178605","0.0-3.0-1.81","true"
"1209","ImagesCoins/10L97.5.png","188","test",".","image-keyboard-response","168","180315","0.0-3.0-1.82","false"
"904","ImagesCoins/10L92.5.png","190","test",".","image-keyboard-response","170","181720","0.0-3.0-1.83","true"
"2799","ImagesCoins/10L95.png","190","test",".","image-keyboard-response","172","185022","0.0-3.0-1.84","true"
"1235","ImagesCoins/10L100.png","188","test",".","image-keyboard-response","174","186759","0.0-3.0-1.85","false"
"854","ImagesCoins/10R102.5.png","190","test",".","image-keyboard-response","176","188115","0.0-3.0-1.86","true"
"1146","ImagesCoins/10L102.5.png","188","test",",","image-keyboard-response","178","189763","0.0-3.0-1.87","true"
"905","ImagesCoins/10L107.5.png","188","test",",","image-keyboard-response","180","191169","0.0-3.0-1.88","true"
"864","ImagesCoins/10R100.png","190","test",".","image-keyboard-response","182","192535","0.0-3.0-1.89","true"
"3759","ImagesTennis/TR95.png","188","test",",","image-keyboard-response","184","196798","0.0-4.0-1.0","true"
"1286","ImagesDirect/VR105.png","190","test",".","image-keyboard-response","186","198585","0.0-4.0-1.1","true"
"1936","ImagesTennis/TL97.5.png","190","test",".","image-keyboard-response","188","201023","0.0-4.0-1.2","true"
"2076","ImagesSoccer/VR97.5.png","190","test",",","image-keyboard-response","190","203600","0.0-4.0-1.3","false"
"2604","ImagesTennis/TR102.5.png","190","test",".","image-keyboard-response","192","206707","0.0-4.0-1.4","true"
"1182","ImagesTennis/TL92.5.png","190","test",".","image-keyboard-response","194","208390","0.0-4.0-1.5","true"
"863","ImagesTennis/TL110.png","188","test",",","image-keyboard-response","196","209756","0.0-4.0-1.6","true"
"2539","ImagesDirect/VL92.5.png","190","test",".","image-keyboard-response","198","212796","0.0-4.0-1.7","true"
"3349","ImagesSoccer/VL97.5.png","190","test",".","image-keyboard-response","200","216648","0.0-4.0-1.8","true"
"1259","ImagesSoccer/VL90.png","190","test",".","image-keyboard-response","202","218409","0.0-4.0-1.9","true"
"1386","ImagesSoccer/VR107.5.png","190","test",".","image-keyboard-response","204","220297","0.0-4.0-1.10","true"
"1770","ImagesDirect/VR100.png","190","test",".","image-keyboard-response","206","222569","0.0-4.0-1.11","true"
"5651","ImagesDirect/VR90.png","188","test",",","image-keyboard-response","208","228721","0.0-4.0-1.12","true"
"2454","ImagesTennis/TR105.png","190","test",".","image-keyboard-response","210","231677","0.0-4.0-1.13","true"
"1272","ImagesSoccer/VL105.png","188","test",",","image-keyboard-response","212","233451","0.0-4.0-1.14","true"
"1430","ImagesSoccer/VL100.png","188","test",".","image-keyboard-response","214","235382","0.0-4.0-1.15","false"
"1220","ImagesSoccer/VL107.5.png","188","test",",","image-keyboard-response","216","237104","0.0-4.0-1.16","true"
"2377","ImagesSoccer/VR90.png","188","test",",","image-keyboard-response","218","239982","0.0-4.0-1.17","true"
"1229","ImagesSoccer/VL110.png","188","test",",","image-keyboard-response","220","241713","0.0-4.0-1.18","true"
"1159","ImagesSoccer/VR95.png","188","test",",","image-keyboard-response","222","243374","0.0-4.0-1.19","true"
"922","ImagesTennis/TL90.png","190","test",".","image-keyboard-response","224","244797","0.0-4.0-1.20","true"
"6531","ImagesSoccer/VL95.png","190","test",".","image-keyboard-response","226","251829","0.0-4.0-1.21","true"
"2056","ImagesTennis/TL95.png","190","test",".","image-keyboard-response","228","254387","0.0-4.0-1.22","true"
"3507","ImagesDirect/VR95.png","190","test",",","image-keyboard-response","230","258395","0.0-4.0-1.23","false"
"1573","ImagesTennis/TR100.png","188","test",".","image-keyboard-response","232","260471","0.0-4.0-1.24","false"
"3086","ImagesTennis/TL105.png","188","test",",","image-keyboard-response","234","264058","0.0-4.0-1.25","true"
"7784","ImagesDirect/VR97.5.png","190","test",",","image-keyboard-response","236","272343","0.0-4.0-1.26","false"
"1223","ImagesDirect/VL90.png","190","test",".","image-keyboard-response","238","274067","0.0-4.0-1.27","true"
"949","ImagesDirect/VL102.5.png","188","test",",","image-keyboard-response","240","275518","0.0-4.0-1.28","true"
"1474","ImagesTennis/TR90.png","188","test",",","image-keyboard-response","242","277493","0.0-4.0-1.29","true"
"1190","ImagesSoccer/VL92.5.png","190","test",".","image-keyboard-response","244","279186","0.0-4.0-1.30","true"
"1209","ImagesSoccer/VR110.png","190","test",".","image-keyboard-response","246","280896","0.0-4.0-1.31","true"
"8855","ImagesTennis/TR97.5.png","188","test",",","image-keyboard-response","248","290252","0.0-4.0-1.32","true"
"1966","ImagesTennis/TR92.5.png","188","test",",","image-keyboard-response","250","292720","0.0-4.0-1.33","true"
"5924","ImagesTennis/TL100.png","190","test",".","image-keyboard-response","252","299145","0.0-4.0-1.34","true"
"910","ImagesDirect/VL105.png","188","test",",","image-keyboard-response","254","300556","0.0-4.0-1.35","true"
"817","ImagesDirect/VR102.5.png","190","test",".","image-keyboard-response","256","301874","0.0-4.0-1.36","true"
"731","ImagesDirect/VR107.5.png","190","test",".","image-keyboard-response","258","303106","0.0-4.0-1.37","true"
"1372","ImagesDirect/VL100.png","188","test",".","image-keyboard-response","260","304979","0.0-4.0-1.38","false"
"1255","ImagesSoccer/VR100.png","190","test",".","image-keyboard-response","262","306736","0.0-4.0-1.39","true"
"940","ImagesTennis/TR110.png","190","test",".","image-keyboard-response","264","308177","0.0-4.0-1.40","true"
"951","ImagesTennis/TL107.5.png","188","test",",","image-keyboard-response","266","309631","0.0-4.0-1.41","true"
"3494","ImagesDirect/VR92.5.png","188","test",",","image-keyboard-response","268","313627","0.0-4.0-1.42","true"
"887","ImagesSoccer/VR105.png","190","test",".","image-keyboard-response","270","315016","0.0-4.0-1.43","true"
"718","ImagesDirect/VL110.png","188","test",",","image-keyboard-response","272","316235","0.0-4.0-1.44","true"
"3980","ImagesDirect/VL95.png","190","test",".","image-keyboard-response","274","320717","0.0-4.0-1.45","true"
"1790","ImagesSoccer/VL102.5.png","188","test",",","image-keyboard-response","276","323009","0.0-4.0-1.46","true"
"1008","ImagesDirect/VL107.5.png","188","test",",","image-keyboard-response","278","324519","0.0-4.0-1.47","true"
"2186","ImagesSoccer/VR102.5.png","190","test",".","image-keyboard-response","280","327206","0.0-4.0-1.48","true"
"1455","ImagesSoccer/VR92.5.png","188","test",",","image-keyboard-response","282","329163","0.0-4.0-1.49","true"
"1402","ImagesTennis/TL102.5.png","190","test",",","image-keyboard-response","284","331068","0.0-4.0-1.50","false"
"3466","ImagesDirect/VL97.5.png","190","test",".","image-keyboard-response","286","335035","0.0-4.0-1.51","true"
"1420","ImagesDirect/VR110.png","190","test",".","image-keyboard-response","288","336958","0.0-4.0-1.52","true"
"1085","ImagesTennis/TR107.5.png","190","test",".","image-keyboard-response","290","338544","0.0-4.0-1.53","true"
"1721","ImagesTennis/TL95.png","190","test",".","image-keyboard-response","292","340767","0.0-4.0-1.54","true"
"941","ImagesTennis/TL92.5.png","190","test",".","image-keyboard-response","294","342211","0.0-4.0-1.55","true"
"4057","ImagesSoccer/VL95.png","190","test",".","image-keyboard-response","296","346771","0.0-4.0-1.56","true"
"990","ImagesTennis/TL100.png","190","test",".","image-keyboard-response","298","348263","0.0-4.0-1.57","true"
"1227","ImagesSoccer/VL105.png","188","test",",","image-keyboard-response","300","349991","0.0-4.0-1.58","true"
"3109","ImagesTennis/TL105.png","190","test",",","image-keyboard-response","302","353602","0.0-4.0-1.59","false"
"860","ImagesDirect/VR105.png","190","test",".","image-keyboard-response","304","354965","0.0-4.0-1.60","true"
"970","ImagesTennis/TR92.5.png","188","test",",","image-keyboard-response","306","356438","0.0-4.0-1.61","true"
"776","ImagesDirect/VR110.png","190","test",".","image-keyboard-response","308","357715","0.0-4.0-1.62","true"
"5137","ImagesSoccer/VR97.5.png","190","test",",","image-keyboard-response","310","363355","0.0-4.0-1.63","false"
"1694","ImagesTennis/TR95.png","188","test",",","image-keyboard-response","312","365552","0.0-4.0-1.64","true"
"1514","ImagesSoccer/VR110.png","190","test",".","image-keyboard-response","314","367567","0.0-4.0-1.65","true"
"5252","ImagesTennis/TR110.png","190","test",".","image-keyboard-response","316","373320","0.0-4.0-1.66","true"
"1578","ImagesTennis/TL102.5.png","190","test",",","image-keyboard-response","318","375400","0.0-4.0-1.67","false"
"913","ImagesSoccer/VL110.png","188","test",",","image-keyboard-response","320","376816","0.0-4.0-1.68","true"
"1089","ImagesTennis/TR107.5.png","190","test",".","image-keyboard-response","322","378407","0.0-4.0-1.69","true"
"2833","ImagesDirect/VL102.5.png","188","test",",","image-keyboard-response","324","381743","0.0-4.0-1.70","true"
"943","ImagesDirect/VR102.5.png","190","test",".","image-keyboard-response","326","383187","0.0-4.0-1.71","true"
"896","ImagesSoccer/VL92.5.png","190","test",".","image-keyboard-response","328","384584","0.0-4.0-1.72","true"
"843","ImagesTennis/TR90.png","188","test",",","image-keyboard-response","330","385928","0.0-4.0-1.73","true"
"1173","ImagesSoccer/VR90.png","188","test",",","image-keyboard-response","332","387603","0.0-4.0-1.74","true"
"1491","ImagesDirect/VL92.5.png","190","test",".","image-keyboard-response","334","389595","0.0-4.0-1.75","true"
"1394","ImagesDirect/VL105.png","188","test",",","image-keyboard-response","336","391491","0.0-4.0-1.76","true"
"2419","ImagesDirect/VL97.5.png","190","test",".","image-keyboard-response","338","394412","0.0-4.0-1.77","true"
"1862","ImagesTennis/TL97.5.png","190","test",".","image-keyboard-response","340","396777","0.0-4.0-1.78","true"
"734","ImagesTennis/TL90.png","190","test",".","image-keyboard-response","342","398014","0.0-4.0-1.79","true"
"1574","ImagesTennis/TR105.png","190","test",".","image-keyboard-response","344","400090","0.0-4.0-1.80","true"
"1357","ImagesSoccer/VR92.5.png","188","test",",","image-keyboard-response","346","401948","0.0-4.0-1.81","true"
"1799","ImagesTennis/TR102.5.png","190","test",".","image-keyboard-response","348","404248","0.0-4.0-1.82","true"
"969","ImagesTennis/TL110.png","188","test",",","image-keyboard-response","350","405718","0.0-4.0-1.83","true"
"1243","ImagesDirect/VL110.png","188","test",",","image-keyboard-response","352","407464","0.0-4.0-1.84","true"
"5147","ImagesDirect/VR95.png","190","test",",","image-keyboard-response","354","413112","0.0-4.0-1.85","false"
"5418","ImagesSoccer/VL100.png","188","test",".","image-keyboard-response","356","419032","0.0-4.0-1.86","false"
"952","ImagesDirect/VL95.png","190","test",".","image-keyboard-response","358","420486","0.0-4.0-1.87","true"
"771","ImagesDirect/VL107.5.png","188","test",",","image-keyboard-response","360","421759","0.0-4.0-1.88","true"
"1349","ImagesTennis/TR97.5.png","188","test",",","image-keyboard-response","362","423610","0.0-4.0-1.89","true"
"1359","ImagesSoccer/VR107.5.png","190","test",".","image-keyboard-response","364","425471","0.0-4.0-1.90","true"
"1161","ImagesSoccer/VR102.5.png","190","test",".","image-keyboard-response","366","427133","0.0-4.0-1.91","true"
"4501","ImagesDirect/VR100.png","190","test",".","image-keyboard-response","368","432137","0.0-4.0-1.92","true"
"6935","ImagesSoccer/VR95.png","190","test",",","image-keyboard-response","370","439575","0.0-4.0-1.93","false"
"1609","ImagesDirect/VL100.png","190","test",".","image-keyboard-response","372","441687","0.0-4.0-1.94","true"
"6634","ImagesTennis/TR100.png","188","test",".","image-keyboard-response","374","448824","0.0-4.0-1.95","false"
"4532","ImagesDirect/VR92.5.png","188","test",",","image-keyboard-response","376","453859","0.0-4.0-1.96","true"
"1807","ImagesSoccer/VL102.5.png","188","test",",","image-keyboard-response","378","456168","0.0-4.0-1.97","true"
"7320","ImagesSoccer/VL97.5.png","190","test",".","image-keyboard-response","380","463989","0.0-4.0-1.98","true"
"850","ImagesDirect/VR107.5.png","190","test",".","image-keyboard-response","382","465342","0.0-4.0-1.99","true"
"1196","ImagesDirect/VL90.png","190","test",".","image-keyboard-response","384","467041","0.0-4.0-1.100","true"
"1402","ImagesDirect/VR97.5.png","190","test",",","image-keyboard-response","386","468944","0.0-4.0-1.101","false"
"3154","ImagesDirect/VR90.png","188","test",",","image-keyboard-response","388","472601","0.0-4.0-1.102","true"
"1137","ImagesSoccer/VL90.png","190","test",".","image-keyboard-response","390","474240","0.0-4.0-1.103","true"
"1885","ImagesSoccer/VR100.png","190","test",".","image-keyboard-response","392","476627","0.0-4.0-1.104","true"
"1053","ImagesTennis/TL107.5.png","188","test",",","image-keyboard-response","394","478183","0.0-4.0-1.105","true"
"841","ImagesSoccer/VL107.5.png","188","test",",","image-keyboard-response","396","479526","0.0-4.0-1.106","true"
"780","ImagesSoccer/VR105.png","190","test",".","image-keyboard-response","398","480810","0.0-4.0-1.107","true"
"1080","ImagesSoccer/VL110.png","188","test",",","image-keyboard-response","400","482391","0.0-4.0-1.108","true"
"1959","ImagesTennis/TR102.5.png","190","test",".","image-keyboard-response","402","484852","0.0-4.0-1.109","true"
"1240","ImagesSoccer/VR92.5.png","188","test",",","image-keyboard-response","404","486593","0.0-4.0-1.110","true"
"965","ImagesTennis/TR110.png","190","test",".","image-keyboard-response","406","488060","0.0-4.0-1.111","true"
"821","ImagesSoccer/VR107.5.png","190","test",".","image-keyboard-response","408","489383","0.0-4.0-1.112","true"
"1026","ImagesDirect/VR105.png","190","test",".","image-keyboard-response","410","490911","0.0-4.0-1.113","true"
"798","ImagesTennis/TL90.png","190","test",".","image-keyboard-response","412","492212","0.0-4.0-1.114","true"
"688","ImagesSoccer/VR110.png","190","test",".","image-keyboard-response","414","493402","0.0-4.0-1.115","true"
"1055","ImagesDirect/VR100.png","190","test",".","image-keyboard-response","416","494959","0.0-4.0-1.116","true"
"744","ImagesDirect/VR97.5.png","190","test",",","image-keyboard-response","418","496205","0.0-4.0-1.117","false"
"1261","ImagesDirect/VR90.png","188","test",",","image-keyboard-response","420","497968","0.0-4.0-1.118","true"
"3018","ImagesDirect/VR95.png","190","test",",","image-keyboard-response","422","501488","0.0-4.0-1.119","false"
"933","ImagesSoccer/VL107.5.png","188","test",",","image-keyboard-response","424","502923","0.0-4.0-1.120","true"
"1546","ImagesDirect/VL92.5.png","190","test",".","image-keyboard-response","426","504970","0.0-4.0-1.121","true"
"867","ImagesDirect/VL110.png","188","test",",","image-keyboard-response","428","506340","0.0-4.0-1.122","true"
"1866","ImagesSoccer/VR95.png","188","test",",","image-keyboard-response","430","508708","0.0-4.0-1.123","true"
"1158","ImagesTennis/TR92.5.png","188","test",",","image-keyboard-response","432","510368","0.0-4.0-1.124","true"
"930","ImagesTennis/TL92.5.png","190","test",".","image-keyboard-response","434","511800","0.0-4.0-1.125","true"
"1843","ImagesSoccer/VR102.5.png","190","test",".","image-keyboard-response","436","514145","0.0-4.0-1.126","true"
"1256","ImagesDirect/VL100.png","188","test",".","image-keyboard-response","438","515903","0.0-4.0-1.127","false"
"1527","ImagesSoccer/VL100.png","188","test",".","image-keyboard-response","440","517931","0.0-4.0-1.128","false"
"986","ImagesDirect/VR102.5.png","190","test",".","image-keyboard-response","442","519419","0.0-4.0-1.129","true"
"1841","ImagesSoccer/VL92.5.png","190","test",".","image-keyboard-response","444","521761","0.0-4.0-1.130","true"
"2558","ImagesTennis/TL102.5.png","190","test",",","image-keyboard-response","446","524821","0.0-4.0-1.131","false"
"1032","ImagesTennis/TL110.png","188","test",",","image-keyboard-response","448","526355","0.0-4.0-1.132","true"
"1151","ImagesDirect/VL95.png","188","test",".","image-keyboard-response","450","528008","0.0-4.0-1.133","false"
"2590","ImagesSoccer/VR90.png","188","test",",","image-keyboard-response","452","531099","0.0-4.0-1.134","true"
"3604","ImagesTennis/TL105.png","188","test",",","image-keyboard-response","454","535204","0.0-4.0-1.135","true"
"7654","ImagesSoccer/VR97.5.png","190","test",",","image-keyboard-response","456","543360","0.0-4.0-1.136","false"
"796","ImagesTennis/TR90.png","188","test",",","image-keyboard-response","458","544659","0.0-4.0-1.137","true"
"853","ImagesTennis/TL95.png","190","test",".","image-keyboard-response","460","546013","0.0-4.0-1.138","true"
"2919","ImagesDirect/VR92.5.png","188","test",",","image-keyboard-response","462","549434","0.0-4.0-1.139","true"
"869","ImagesTennis/TR95.png","188","test",",","image-keyboard-response","464","550805","0.0-4.0-1.140","true"
"817","ImagesSoccer/VL90.png","190","test",".","image-keyboard-response","466","552124","0.0-4.0-1.141","true"
"1417","ImagesDirect/VL97.5.png","188","test",".","image-keyboard-response","468","554043","0.0-4.0-1.142","false"
"1531","ImagesTennis/TR100.png","190","test",".","image-keyboard-response","470","556076","0.0-4.0-1.143","true"
"1979","ImagesTennis/TL97.5.png","190","test",".","image-keyboard-response","472","558557","0.0-4.0-1.144","true"
"1178","ImagesTennis/TL107.5.png","188","test",",","image-keyboard-response","474","560236","0.0-4.0-1.145","true"
"1280","ImagesSoccer/VL105.png","188","test",",","image-keyboard-response","476","562017","0.0-4.0-1.146","true"
"1831","ImagesSoccer/VL97.5.png","188","test",".","image-keyboard-response","478","564350","0.0-4.0-1.147","false"
"1047","ImagesSoccer/VR105.png","190","test",".","image-keyboard-response","480","565898","0.0-4.0-1.148","true"
"2187","ImagesTennis/TR105.png","190","test",".","image-keyboard-response","482","568586","0.0-4.0-1.149","true"
"982","ImagesDirect/VR107.5.png","190","test",".","image-keyboard-response","484","570069","0.0-4.0-1.150","true"
"773","ImagesTennis/TR107.5.png","190","test",".","image-keyboard-response","486","571343","0.0-4.0-1.151","true"
"725","ImagesDirect/VR110.png","190","test",".","image-keyboard-response","488","572570","0.0-4.0-1.152","true"
"1798","ImagesDirect/VL90.png","190","test",".","image-keyboard-response","490","574870","0.0-4.0-1.153","true"
"1646","ImagesDirect/VL105.png","188","test",",","image-keyboard-response","492","577018","0.0-4.0-1.154","true"
"5953","ImagesSoccer/VL102.5.png","188","test",",","image-keyboard-response","494","583472","0.0-4.0-1.155","true"
"1322","ImagesDirect/VL102.5.png","188","test",",","image-keyboard-response","496","585297","0.0-4.0-1.156","true"
"1828","ImagesSoccer/VL95.png","190","test",".","image-keyboard-response","498","587627","0.0-4.0-1.157","true"
"1571","ImagesDirect/VL107.5.png","188","test",",","image-keyboard-response","500","589701","0.0-4.0-1.158","true"
"1659","ImagesTennis/TR97.5.png","188","test",",","image-keyboard-response","502","591862","0.0-4.0-1.159","true"
"1041","ImagesTennis/TL100.png","190","test",".","image-keyboard-response","504","593405","0.0-4.0-1.160","true"
"1979","ImagesSoccer/VR100.png","190","test",".","image-keyboard-response","506","595886","0.0-4.0-1.161","true"
"1278","ImagesSoccer/VR90.png","188","test",",","image-keyboard-response","508","597667","0.0-4.0-1.162","true"
"2710","ImagesTennis/TL97.5.png","190","test",".","image-keyboard-response","510","600880","0.0-4.0-1.163","true"
"1653","ImagesDirect/VR100.png","190","test",".","image-keyboard-response","512","603035","0.0-4.0-1.164","true"
"5425","ImagesDirect/VR95.png","190","test",",","image-keyboard-response","514","608962","0.0-4.0-1.165","false"
"1505","ImagesDirect/VR90.png","188","test",",","image-keyboard-response","516","610969","0.0-4.0-1.166","true"
"1607","ImagesDirect/VL102.5.png","188","test",",","image-keyboard-response","518","613078","0.0-4.0-1.167","true"
"4046","ImagesTennis/TR92.5.png","188","test",",","image-keyboard-response","520","617626","0.0-4.0-1.168","true"
"7109","ImagesDirect/VL100.png","188","test",".","image-keyboard-response","522","625238","0.0-4.0-1.169","false"
"3343","ImagesTennis/TR97.5.png","188","test",",","image-keyboard-response","524","629084","0.0-4.0-1.170","true"
"2470","ImagesDirect/VL92.5.png","190","test",".","image-keyboard-response","526","632055","0.0-4.0-1.171","true"
"1478","ImagesTennis/TR102.5.png","190","test",".","image-keyboard-response","528","634034","0.0-4.0-1.172","true"
"2656","ImagesTennis/TR95.png","188","test",",","image-keyboard-response","530","637191","0.0-4.0-1.173","true"
"1579","ImagesTennis/TL107.5.png","188","test",",","image-keyboard-response","532","639272","0.0-4.0-1.174","true"
"5240","ImagesDirect/VR97.5.png","190","test",",","image-keyboard-response","534","645013","0.0-4.0-1.175","false"
"1561","ImagesTennis/TL92.5.png","190","test",".","image-keyboard-response","536","647075","0.0-4.0-1.176","true"
"2160","ImagesTennis/TR90.png","188","test",",","image-keyboard-response","538","649737","0.0-4.0-1.177","true"
"2012","ImagesSoccer/VL97.5.png","188","test",".","image-keyboard-response","540","652253","0.0-4.0-1.178","false"
"1113","ImagesDirect/VL105.png","188","test",",","image-keyboard-response","542","653867","0.0-4.0-1.179","true"
"2015","ImagesTennis/TR105.png","190","test",".","image-keyboard-response","544","656384","0.0-4.0-1.180","true"
"1133","ImagesSoccer/VR107.5.png","190","test",".","image-keyboard-response","546","658018","0.0-4.0-1.181","true"
"2458","ImagesTennis/TL105.png","188","test",",","image-keyboard-response","548","660977","0.0-4.0-1.182","true"
"5010","ImagesDirect/VL97.5.png","188","test",".","image-keyboard-response","550","666491","0.0-4.0-1.183","false"
"3434","ImagesTennis/TL90.png","190","test",".","image-keyboard-response","552","670427","0.0-4.0-1.184","true"
"3144","ImagesTennis/TL100.png","190","test",".","image-keyboard-response","554","674072","0.0-4.0-1.185","true"
"1497","ImagesTennis/TR107.5.png","190","test",".","image-keyboard-response","556","676071","0.0-4.0-1.186","true"
"2576","ImagesSoccer/VR97.5.png","190","test",",","image-keyboard-response","558","679149","0.0-4.0-1.187","false"
"758","ImagesDirect/VL110.png","188","test",",","image-keyboard-response","560","680409","0.0-4.0-1.188","true"
"1273","ImagesSoccer/VL105.png","188","test",",","image-keyboard-response","562","682183","0.0-4.0-1.189","true"
"978","ImagesDirect/VR110.png","190","test",".","image-keyboard-response","564","683663","0.0-4.0-1.190","true"
"1034","ImagesSoccer/VL107.5.png","188","test",",","image-keyboard-response","566","685201","0.0-4.0-1.191","true"
"1760","ImagesSoccer/VL102.5.png","188","test",",","image-keyboard-response","568","687462","0.0-4.0-1.192","true"
"1151","ImagesDirect/VR105.png","190","test",".","image-keyboard-response","570","689114","0.0-4.0-1.193","true"
"1460","ImagesTennis/TL95.png","190","test",".","image-keyboard-response","572","691075","0.0-4.0-1.194","true"
"1682","ImagesSoccer/VR92.5.png","188","test",",","image-keyboard-response","574","693259","0.0-4.0-1.195","true"
"1490","ImagesSoccer/VR105.png","190","test",".","image-keyboard-response","576","695251","0.0-4.0-1.196","true"
"1880","ImagesDirect/VL95.png","190","test",".","image-keyboard-response","578","697632","0.0-4.0-1.197","true"
"1404","ImagesSoccer/VR102.5.png","190","test",".","image-keyboard-response","580","699539","0.0-4.0-1.198","true"
"986","ImagesDirect/VR107.5.png","190","test",".","image-keyboard-response","582","701026","0.0-4.0-1.199","true"
"977","ImagesTennis/TR110.png","190","test",".","image-keyboard-response","584","702505","0.0-4.0-1.200","true"
"3367","ImagesSoccer/VL95.png","190","test",".","image-keyboard-response","586","706373","0.0-4.0-1.201","true"
"3544","ImagesSoccer/VL100.png","188","test",".","image-keyboard-response","588","710421","0.0-4.0-1.202","false"
"1077","ImagesDirect/VL90.png","190","test",".","image-keyboard-response","590","712000","0.0-4.0-1.203","true"
"978","ImagesSoccer/VR100.png","190","test",".","image-keyboard-response","592","713480","0.0-4.0-1.204","true"
"1448","ImagesTennis/TR100.png","190","test",".","image-keyboard-response","594","715431","0.0-4.0-1.205","true"
"1637","ImagesSoccer/VL92.5.png","190","test",".","image-keyboard-response","596","717571","0.0-4.0-1.206","true"
"918","ImagesSoccer/VL110.png","188","test",",","image-keyboard-response","598","718992","0.0-4.0-1.207","true"
"1610","ImagesDirect/VL107.5.png","188","test",",","image-keyboard-response","600","721104","0.0-4.0-1.208","true"
"3116","ImagesTennis/TL102.5.png","188","test",",","image-keyboard-response","602","724722","0.0-4.0-1.209","true"
"1252","ImagesTennis/TL110.png","188","test",",","image-keyboard-response","604","726477","0.0-4.0-1.210","true"
"4752","ImagesSoccer/VL90.png","190","test",".","image-keyboard-response","606","731731","0.0-4.0-1.211","true"
"1577","ImagesDirect/VR102.5.png","190","test",".","image-keyboard-response","608","733810","0.0-4.0-1.212","true"
"1705","ImagesSoccer/VR95.png","188","test",",","image-keyboard-response","610","736016","0.0-4.0-1.213","true"
"883","ImagesSoccer/VR110.png","190","test",".","image-keyboard-response","612","737401","0.0-4.0-1.214","true"
"2078","ImagesDirect/VR92.5.png","188","test",",","image-keyboard-response","614","739981","0.0-4.0-1.215","true"
"1089","ImagesTennis/TR107.5.png","190","test",".","image-keyboard-response","616","741572","0.0-4.0-1.216","true"
"2538","ImagesDirect/VL100.png","188","test",".","image-keyboard-response","618","744613","0.0-4.0-1.217","false"
"2460","ImagesTennis/TL100.png","188","test",".","image-keyboard-response","620","747576","0.0-4.0-1.218","false"
"1244","ImagesSoccer/VL100.png","188","test",".","image-keyboard-response","622","749322","0.0-4.0-1.219","false"
"942","ImagesSoccer/VL107.5.png","188","test",",","image-keyboard-response","624","750767","0.0-4.0-1.220","true"
"2182","ImagesDirect/VR100.png","188","test",".","image-keyboard-response","626","753450","0.0-4.0-1.221","false"
"1026","ImagesDirect/VL90.png","188","test",".","image-keyboard-response","628","754979","0.0-4.0-1.222","false"
"1461","ImagesSoccer/VR107.5.png","190","test",".","image-keyboard-response","630","756941","0.0-4.0-1.223","true"
"3585","ImagesSoccer/VR92.5.png","188","test",",","image-keyboard-response","632","761028","0.0-4.0-1.224","true"
"1027","ImagesTennis/TR110.png","190","test",".","image-keyboard-response","634","762558","0.0-4.0-1.225","true"
"1081","ImagesTennis/TL97.5.png","190","test",".","image-keyboard-response","636","764141","0.0-4.0-1.226","true"
"1296","ImagesSoccer/VL97.5.png","190","test",".","image-keyboard-response","638","765939","0.0-4.0-1.227","true"
"2458","ImagesTennis/TR97.5.png","188","test",",","image-keyboard-response","640","768899","0.0-4.0-1.228","true"
"915","ImagesDirect/VR97.5.png","190","test",",","image-keyboard-response","642","770315","0.0-4.0-1.229","false"
"773","ImagesSoccer/VR110.png","190","test",".","image-keyboard-response","644","771589","0.0-4.0-1.230","true"
"1650","ImagesDirect/VR95.png","190","test",",","image-keyboard-response","646","773740","0.0-4.0-1.231","false"
"3634","ImagesSoccer/VR97.5.png","188","test",",","image-keyboard-response","648","777876","0.0-4.0-1.232","true"
"963","ImagesDirect/VL110.png","188","test",",","image-keyboard-response","650","779341","0.0-4.0-1.233","true"
"1572","ImagesDirect/VL95.png","190","test",".","image-keyboard-response","652","781415","0.0-4.0-1.234","true"
"2420","ImagesTennis/TR105.png","190","test",".","image-keyboard-response","654","784337","0.0-4.0-1.235","true"
"899","ImagesSoccer/VR105.png","190","test",".","image-keyboard-response","656","785737","0.0-4.0-1.236","true"
"1367","ImagesDirect/VR107.5.png","190","test",".","image-keyboard-response","658","787606","0.0-4.0-1.237","true"
"930","ImagesTennis/TL92.5.png","190","test",".","image-keyboard-response","660","789038","0.0-4.0-1.238","true"
"1097","ImagesSoccer/VL110.png","188","test",",","image-keyboard-response","662","790637","0.0-4.0-1.239","true"
"1539","ImagesDirect/VR90.png","188","test",",","image-keyboard-response","664","792677","0.0-4.0-1.240","true"
"1580","ImagesTennis/TR92.5.png","188","test",",","image-keyboard-response","666","794759","0.0-4.0-1.241","true"
"4625","ImagesTennis/TR100.png","190","test",".","image-keyboard-response","668","799885","0.0-4.0-1.242","true"
"877","ImagesTennis/TR102.5.png","190","test",".","image-keyboard-response","670","801264","0.0-4.0-1.243","true"
"3156","ImagesSoccer/VL95.png","190","test",".","image-keyboard-response","672","804922","0.0-4.0-1.244","true"
"937","ImagesDirect/VL107.5.png","188","test",",","image-keyboard-response","674","806363","0.0-4.0-1.245","true"
"864","ImagesTennis/TL90.png","190","test",".","image-keyboard-response","676","807729","0.0-4.0-1.246","true"
"1993","ImagesTennis/TR95.png","188","test",",","image-keyboard-response","678","810223","0.0-4.0-1.247","true"
"1198","ImagesSoccer/VL105.png","188","test",",","image-keyboard-response","680","811922","0.0-4.0-1.248","true"
"4704","ImagesDirect/VR92.5.png","188","test",",","image-keyboard-response","682","817127","0.0-4.0-1.249","true"
"913","ImagesSoccer/VL102.5.png","188","test",",","image-keyboard-response","684","818543","0.0-4.0-1.250","true"
"5505","ImagesSoccer/VR95.png","190","test",",","image-keyboard-response","686","824551","0.0-4.0-1.251","false"
"1336","ImagesTennis/TL95.png","190","test",".","image-keyboard-response","688","826391","0.0-4.0-1.252","true"
"879","ImagesDirect/VR105.png","190","test",".","image-keyboard-response","690","827774","0.0-4.0-1.253","true"
"1789","ImagesTennis/TL105.png","188","test",",","image-keyboard-response","692","830064","0.0-4.0-1.254","true"
"1136","ImagesTennis/TR90.png","188","test",",","image-keyboard-response","694","831703","0.0-4.0-1.255","true"
"1728","ImagesDirect/VL97.5.png","188","test",".","image-keyboard-response","696","833932","0.0-4.0-1.256","false"
"1134","ImagesTennis/TL102.5.png","188","test",",","image-keyboard-response","698","835568","0.0-4.0-1.257","true"
"1541","ImagesDirect/VL102.5.png","188","test",",","image-keyboard-response","700","837610","0.0-4.0-1.258","true"
"1081","ImagesSoccer/VR100.png","190","test",".","image-keyboard-response","702","839192","0.0-4.0-1.259","true"
"956","ImagesSoccer/VL90.png","190","test",".","image-keyboard-response","704","840649","0.0-4.0-1.260","true"
"1578","ImagesSoccer/VR102.5.png","190","test",".","image-keyboard-response","706","842728","0.0-4.0-1.261","true"
"1171","ImagesDirect/VR102.5.png","190","test",".","image-keyboard-response","708","844402","0.0-4.0-1.262","true"
"820","ImagesDirect/VR110.png","190","test",".","image-keyboard-response","710","845725","0.0-4.0-1.263","true"
"1421","ImagesSoccer/VL92.5.png","190","test",".","image-keyboard-response","712","847648","0.0-4.0-1.264","true"
"987","ImagesTennis/TL110.png","188","test",",","image-keyboard-response","714","849136","0.0-4.0-1.265","true"
"786","ImagesTennis/TL107.5.png","188","test",",","image-keyboard-response","716","850423","0.0-4.0-1.266","true"
"1919","ImagesDirect/VL92.5.png","190","test",".","image-keyboard-response","718","852843","0.0-4.0-1.267","true"
"1280","ImagesSoccer/VR90.png","188","test",",","image-keyboard-response","720","854625","0.0-4.0-1.268","true"
"911","ImagesDirect/VL105.png","188","test",",","image-keyboard-response","722","856038","0.0-4.0-1.269","true"
