"rt","stimulus","key_press","test_part","correct_response","trial_type","trial_index","time_elapsed","internal_node_id","correct"
"6159","ImagesCoins/10L97.5.png","188","test",".","image-keyboard-response","4","54539","0.0-3.0-1.0","false"
"9976","ImagesCoins/10R105.png","188","test",".","image-keyboard-response","6","65034","0.0-3.0-1.1","false"
"1369","ImagesCoins/10L105.png","188","test",",","image-keyboard-response","8","66908","0.0-3.0-1.2","true"
"894","ImagesCoins/10L95.png","190","test",".","image-keyboard-response","10","68306","0.0-3.0-1.3","true"
"965","ImagesCoins/10R110.png","190","test",".","image-keyboard-response","12","69781","0.0-3.0-1.4","true"
"1213","ImagesCoins/10L100.png","188","test",".","image-keyboard-response","14","71505","0.0-3.0-1.5","false"
"781","ImagesCoins/10R100.png","190","test",".","image-keyboard-response","16","72800","0.0-3.0-1.6","true"
"1230","ImagesCoins/10R97.5.png","188","test",",","image-keyboard-response","18","74544","0.0-3.0-1.7","true"
"912","ImagesCoins/10R92.5.png","188","test",",","image-keyboard-response","20","75962","0.0-3.0-1.8","true"
"959","ImagesCoins/10L102.5.png","188","test",",","image-keyboard-response","22","77443","0.0-3.0-1.9","true"
"1253","ImagesCoins/10R90.png","188","test",",","image-keyboard-response","24","79204","0.0-3.0-1.10","true"
"1067","ImagesCoins/10R95.png","188","test",",","image-keyboard-response","26","80792","0.0-3.0-1.11","true"
"3043","ImagesCoins/10L92.5.png","190","test",".","image-keyboard-response","28","84341","0.0-3.0-1.12","true"
"13980","ImagesCoins/10R102.5.png","190","test",".","image-keyboard-response","30","98827","0.0-3.0-1.13","true"
"1603","ImagesCoins/10L110.png","188","test",",","image-keyboard-response","32","100947","0.0-3.0-1.14","true"
"1352","ImagesCoins/10L90.png","190","test",".","image-keyboard-response","34","102812","0.0-3.0-1.15","true"
"769","ImagesCoins/10L107.5.png","188","test",",","image-keyboard-response","36","104086","0.0-3.0-1.16","true"
"1593","ImagesCoins/10R107.5.png","190","test",".","image-keyboard-response","38","106196","0.0-3.0-1.17","true"
"1299","ImagesCoins/10L90.png","190","test",".","image-keyboard-response","40","108003","0.0-3.0-1.18","true"
"2292","ImagesCoins/10R105.png","190","test",".","image-keyboard-response","42","110809","0.0-3.0-1.19","true"
"1070","ImagesCoins/10L110.png","188","test",",","image-keyboard-response","44","112385","0.0-3.0-1.20","true"
"3653","ImagesCoins/10R102.5.png","190","test",".","image-keyboard-response","46","116560","0.0-3.0-1.21","true"
"1314","ImagesCoins/10R90.png","188","test",",","image-keyboard-response","48","118381","0.0-3.0-1.22","true"
"910","ImagesCoins/10R95.png","188","test",",","image-keyboard-response","50","119805","0.0-3.0-1.23","true"
"1192","ImagesCoins/10R92.5.png","188","test",",","image-keyboard-response","52","121510","0.0-3.0-1.24","true"
"702","ImagesCoins/10R107.5.png","190","test",".","image-keyboard-response","54","122716","0.0-3.0-1.25","true"
"746","ImagesCoins/10L107.5.png","188","test",",","image-keyboard-response","56","123968","0.0-3.0-1.26","true"
"2296","ImagesCoins/10R97.5.png","188","test",",","image-keyboard-response","58","126773","0.0-3.0-1.27","true"
"3400","ImagesCoins/10L92.5.png","190","test",".","image-keyboard-response","60","130679","0.0-3.0-1.28","true"
"2272","ImagesCoins/10L95.png","190","test",".","image-keyboard-response","62","133458","0.0-3.0-1.29","true"
"646","ImagesCoins/10R110.png","190","test",".","image-keyboard-response","64","134618","0.0-3.0-1.30","true"
"3213","ImagesCoins/10R100.png","190","test",".","image-keyboard-response","66","138338","0.0-3.0-1.31","true"
"2925","ImagesCoins/10L100.png","188","test",".","image-keyboard-response","68","141778","0.0-3.0-1.32","false"
"968","ImagesCoins/10L105.png","188","test",",","image-keyboard-response","70","143258","0.0-3.0-1.33","true"
"1698","ImagesCoins/10L102.5.png","188","test",",","image-keyboard-response","72","145481","0.0-3.0-1.34","true"
"9945","ImagesCoins/10L97.5.png","190","test",".","image-keyboard-response","74","155937","0.0-3.0-1.35","true"
"2289","ImagesCoins/10R95.png","188","test",",","image-keyboard-response","76","158734","0.0-3.0-1.36","true"
"1016","ImagesCoins/10R107.5.png","190","test",".","image-keyboard-response","78","160257","0.0-3.0-1.37","true"
"5701","ImagesCoins/10R97.5.png","190","test",",","image-keyboard-response","80","166461","0.0-3.0-1.38","false"
"2359","ImagesCoins/10L95.png","190","test",".","image-keyboard-response","82","169334","0.0-3.0-1.39","true"
"6820","ImagesCoins/10L97.5.png","190","test",".","image-keyboard-response","84","176668","0.0-3.0-1.40","true"
"1886","ImagesCoins/10R92.5.png","188","test",",","image-keyboard-response","86","179066","0.0-3.0-1.41","true"
"996","ImagesCoins/10R90.png","188","test",",","image-keyboard-response","88","180569","0.0-3.0-1.42","true"
"1810","ImagesCoins/10L105.png","188","test",",","image-keyboard-response","90","182883","0.0-3.0-1.43","true"
"715","ImagesCoins/10R105.png","190","test",".","image-keyboard-response","92","184110","0.0-3.0-1.44","true"
"1182","ImagesCoins/10L107.5.png","188","test",",","image-keyboard-response","94","185807","0.0-3.0-1.45","true"
"3464","ImagesCoins/10R100.png","190","test",".","image-keyboard-response","96","189775","0.0-3.0-1.46","true"
"10762","ImagesCoins/10L100.png","190","test",".","image-keyboard-response","98","201042","0.0-3.0-1.47","true"
"1556","ImagesCoins/10L102.5.png","188","test",",","image-keyboard-response","100","203104","0.0-3.0-1.48","true"
"716","ImagesCoins/10R110.png","190","test",".","image-keyboard-response","102","204331","0.0-3.0-1.49","true"
"3263","ImagesCoins/10R102.5.png","190","test",".","image-keyboard-response","104","208112","0.0-3.0-1.50","true"
"1357","ImagesCoins/10L92.5.png","190","test",".","image-keyboard-response","106","209983","0.0-3.0-1.51","true"
"878","ImagesCoins/10L110.png","188","test",",","image-keyboard-response","108","211368","0.0-3.0-1.52","true"
"1502","ImagesCoins/10L90.png","190","test",".","image-keyboard-response","110","213381","0.0-3.0-1.53","true"
"3258","ImagesCoins/10L95.png","190","test",".","image-keyboard-response","112","217143","0.0-3.0-1.54","true"
"804","ImagesCoins/10L105.png","188","test",",","image-keyboard-response","114","218460","0.0-3.0-1.55","true"
"1277","ImagesCoins/10L92.5.png","190","test",".","image-keyboard-response","116","220241","0.0-3.0-1.56","true"
"918","ImagesCoins/10L110.png","188","test",",","image-keyboard-response","118","221663","0.0-3.0-1.57","true"
"8306","ImagesCoins/10L97.5.png","190","test",".","image-keyboard-response","120","230484","0.0-3.0-1.58","true"
"1722","ImagesCoins/10R100.png","190","test",".","image-keyboard-response","122","232711","0.0-3.0-1.59","true"
"1260","ImagesCoins/10R107.5.png","190","test",".","image-keyboard-response","124","234476","0.0-3.0-1.60","true"
"1232","ImagesCoins/10R105.png","190","test",".","image-keyboard-response","126","236214","0.0-3.0-1.61","true"
"1330","ImagesCoins/10R92.5.png","188","test",",","image-keyboard-response","128","238064","0.0-3.0-1.62","true"
"3464","ImagesCoins/10R102.5.png","190","test",".","image-keyboard-response","130","242033","0.0-3.0-1.63","true"
"741","ImagesCoins/10L90.png","190","test",".","image-keyboard-response","132","243287","0.0-3.0-1.64","true"
"4033","ImagesCoins/10R97.5.png","190","test",",","image-keyboard-response","134","247834","0.0-3.0-1.65","false"
"1459","ImagesCoins/10L107.5.png","188","test",",","image-keyboard-response","136","249800","0.0-3.0-1.66","true"
"10306","ImagesCoins/10L100.png","190","test",".","image-keyboard-response","138","260613","0.0-3.0-1.67","true"
"639","ImagesCoins/10R110.png","190","test",".","image-keyboard-response","140","261771","0.0-3.0-1.68","true"
"1003","ImagesCoins/10R90.png","188","test",",","image-keyboard-response","142","263293","0.0-3.0-1.69","true"
"13431","ImagesCoins/10R95.png","188","test",",","image-keyboard-response","144","277227","0.0-3.0-1.70","true"
"3046","ImagesCoins/10L102.5.png","188","test",",","image-keyboard-response","146","280782","0.0-3.0-1.71","true"
"1264","ImagesCoins/10R110.png","190","test",".","image-keyboard-response","148","282552","0.0-3.0-1.72","true"
"11309","ImagesCoins/10L100.png","188","test",".","image-keyboard-response","150","294368","0.0-3.0-1.73","false"
"20682","ImagesCoins/10L102.5.png","188","test",",","image-keyboard-response","152","315565","0.0-3.0-1.74","true"
"2904","ImagesCoins/10R102.5.png","190","test",".","image-keyboard-response","154","318972","0.0-3.0-1.75","true"
"1726","ImagesCoins/10R107.5.png","190","test",".","image-keyboard-response","156","321207","0.0-3.0-1.76","true"
"3014","ImagesCoins/10L95.png","190","test",".","image-keyboard-response","158","324726","0.0-3.0-1.77","true"
"4565","ImagesCoins/10R97.5.png","188","test",",","image-keyboard-response","160","329794","0.0-3.0-1.78","true"
"1997","ImagesCoins/10R92.5.png","188","test",",","image-keyboard-response","162","332310","0.0-3.0-1.79","true"
"8475","ImagesCoins/10R100.png","190","test",".","image-keyboard-response","164","341290","0.0-3.0-1.80","true"
"874","ImagesCoins/10L90.png","190","test",".","image-keyboard-response","166","342670","0.0-3.0-1.81","true"
"824","ImagesCoins/10L110.png","188","test",",","image-keyboard-response","168","344008","0.0-3.0-1.82","true"
"2161","ImagesCoins/10L105.png","188","test",",","image-keyboard-response","170","346685","0.0-3.0-1.83","true"
"5470","ImagesCoins/10L97.5.png","190","test",".","image-keyboard-response","172","352663","0.0-3.0-1.84","true"
"1247","ImagesCoins/10R90.png","188","test",",","image-keyboard-response","174","354416","0.0-3.0-1.85","true"
"888","ImagesCoins/10R105.png","190","test",".","image-keyboard-response","176","355826","0.0-3.0-1.86","true"
"18461","ImagesCoins/10R95.png","188","test",",","image-keyboard-response","178","374791","0.0-3.0-1.87","true"
"998","ImagesCoins/10L107.5.png","188","test",",","image-keyboard-response","180","376295","0.0-3.0-1.88","true"
"1797","ImagesCoins/10L92.5.png","190","test",".","image-keyboard-response","182","378608","0.0-3.0-1.89","true"
"2561","ImagesDirect/VR107.5.png","190","test",".","image-keyboard-response","184","381674","0.0-4.0-1.0","true"
"2867","ImagesTennis/TR105.png","190","test",".","image-keyboard-response","186","385048","0.0-4.0-1.1","true"
"2170","ImagesSoccer/VR95.png","188","test",",","image-keyboard-response","188","387734","0.0-4.0-1.2","true"
"1244","ImagesSoccer/VL100.png","188","test",".","image-keyboard-response","190","389481","0.0-4.0-1.3","false"
"923","ImagesSoccer/VR110.png","190","test",".","image-keyboard-response","192","390910","0.0-4.0-1.4","true"
"1303","ImagesDirect/VL105.png","188","test",",","image-keyboard-response","194","392725","0.0-4.0-1.5","true"
"2853","ImagesSoccer/VL95.png","188","test",".","image-keyboard-response","196","396081","0.0-4.0-1.6","false"
"3126","ImagesSoccer/VL92.5.png","190","test",".","image-keyboard-response","198","399712","0.0-4.0-1.7","true"
"2500","ImagesSoccer/VL97.5.png","188","test",".","image-keyboard-response","200","402719","0.0-4.0-1.8","false"
"1388","ImagesTennis/TR92.5.png","188","test",",","image-keyboard-response","202","404615","0.0-4.0-1.9","true"
"2023","ImagesSoccer/VL102.5.png","188","test",",","image-keyboard-response","204","407142","0.0-4.0-1.10","true"
"4556","ImagesSoccer/VR97.5.png","188","test",",","image-keyboard-response","206","412202","0.0-4.0-1.11","true"
"1046","ImagesDirect/VR110.png","190","test",".","image-keyboard-response","208","413761","0.0-4.0-1.12","true"
"1083","ImagesDirect/VR105.png","190","test",".","image-keyboard-response","210","415349","0.0-4.0-1.13","true"
"1100","ImagesTennis/TR90.png","188","test",",","image-keyboard-response","212","416960","0.0-4.0-1.14","true"
"1324","ImagesTennis/TL90.png","190","test",".","image-keyboard-response","214","418801","0.0-4.0-1.15","true"
"3680","ImagesDirect/VL95.png","190","test",".","image-keyboard-response","216","422984","0.0-4.0-1.16","true"
"1391","ImagesSoccer/VR102.5.png","190","test",".","image-keyboard-response","218","424891","0.0-4.0-1.17","true"
"3360","ImagesDirect/VR95.png","190","test",",","image-keyboard-response","220","428763","0.0-4.0-1.18","false"
"841","ImagesDirect/VL100.png","188","test",".","image-keyboard-response","222","430121","0.0-4.0-1.19","false"
"946","ImagesSoccer/VL90.png","190","test",".","image-keyboard-response","224","431572","0.0-4.0-1.20","true"
"3088","ImagesDirect/VL97.5.png","188","test",".","image-keyboard-response","226","435164","0.0-4.0-1.21","false"
"1164","ImagesDirect/VL92.5.png","190","test",".","image-keyboard-response","228","436848","0.0-4.0-1.22","true"
"857","ImagesDirect/VL102.5.png","188","test",",","image-keyboard-response","230","438209","0.0-4.0-1.23","true"
"1076","ImagesSoccer/VL105.png","188","test",",","image-keyboard-response","232","439790","0.0-4.0-1.24","true"
"1435","ImagesSoccer/VR92.5.png","188","test",",","image-keyboard-response","234","441731","0.0-4.0-1.25","true"
"2037","ImagesTennis/TR107.5.png","190","test",".","image-keyboard-response","236","444277","0.0-4.0-1.26","true"
"3784","ImagesDirect/VR97.5.png","190","test",",","image-keyboard-response","238","448569","0.0-4.0-1.27","false"
"1317","ImagesDirect/VR102.5.png","190","test",".","image-keyboard-response","240","450393","0.0-4.0-1.28","true"
"3649","ImagesTennis/TR102.5.png","190","test",".","image-keyboard-response","242","454554","0.0-4.0-1.29","true"
"841","ImagesTennis/TR97.5.png","188","test",",","image-keyboard-response","244","455902","0.0-4.0-1.30","true"
"701","ImagesDirect/VL110.png","188","test",",","image-keyboard-response","246","457110","0.0-4.0-1.31","true"
"1310","ImagesTennis/TL107.5.png","188","test",",","image-keyboard-response","248","458941","0.0-4.0-1.32","true"
"905","ImagesSoccer/VR105.png","190","test",".","image-keyboard-response","250","460366","0.0-4.0-1.33","true"
"3938","ImagesTennis/TL100.png","190","test",".","image-keyboard-response","252","464811","0.0-4.0-1.34","true"
"822","ImagesTennis/TR95.png","188","test",",","image-keyboard-response","254","466139","0.0-4.0-1.35","true"
"1069","ImagesTennis/TL92.5.png","190","test",".","image-keyboard-response","256","467720","0.0-4.0-1.36","true"
"1323","ImagesTennis/TL110.png","188","test",",","image-keyboard-response","258","469553","0.0-4.0-1.37","true"
"1857","ImagesSoccer/VR100.png","190","test",".","image-keyboard-response","260","471929","0.0-4.0-1.38","true"
"1324","ImagesSoccer/VR90.png","188","test",",","image-keyboard-response","262","473763","0.0-4.0-1.39","true"
"1146","ImagesDirect/VR90.png","188","test",",","image-keyboard-response","264","475416","0.0-4.0-1.40","true"
"1014","ImagesTennis/TL105.png","188","test",",","image-keyboard-response","266","476933","0.0-4.0-1.41","true"
"2144","ImagesTennis/TL102.5.png","188","test",",","image-keyboard-response","268","479583","0.0-4.0-1.42","true"
"805","ImagesTennis/TL97.5.png","190","test",".","image-keyboard-response","270","480892","0.0-4.0-1.43","true"
"854","ImagesDirect/VL107.5.png","188","test",",","image-keyboard-response","272","482253","0.0-4.0-1.44","true"
"722","ImagesSoccer/VL110.png","188","test",",","image-keyboard-response","274","483488","0.0-4.0-1.45","true"
"2368","ImagesDirect/VR92.5.png","190","test",",","image-keyboard-response","276","486361","0.0-4.0-1.46","false"
"1315","ImagesDirect/VR100.png","190","test",".","image-keyboard-response","278","488183","0.0-4.0-1.47","true"
"2196","ImagesTennis/TR100.png","188","test",".","image-keyboard-response","280","490884","0.0-4.0-1.48","false"
"948","ImagesTennis/TR110.png","190","test",".","image-keyboard-response","282","492338","0.0-4.0-1.49","true"
"1804","ImagesTennis/TL95.png","190","test",".","image-keyboard-response","284","494663","0.0-4.0-1.50","true"
"3234","ImagesDirect/VL90.png","190","test",".","image-keyboard-response","286","498413","0.0-4.0-1.51","true"
"792","ImagesSoccer/VL107.5.png","188","test",",","image-keyboard-response","288","499717","0.0-4.0-1.52","true"
"1052","ImagesSoccer/VR107.5.png","190","test",".","image-keyboard-response","290","501285","0.0-4.0-1.53","true"
"1202","ImagesTennis/TR105.png","190","test",".","image-keyboard-response","292","502992","0.0-4.0-1.54","true"
"1067","ImagesSoccer/VR102.5.png","190","test",".","image-keyboard-response","294","504564","0.0-4.0-1.55","true"
"1446","ImagesTennis/TL95.png","190","test",".","image-keyboard-response","296","506517","0.0-4.0-1.56","true"
"2657","ImagesDirect/VL90.png","190","test",".","image-keyboard-response","298","509680","0.0-4.0-1.57","true"
"6686","ImagesDirect/VR92.5.png","188","test",",","image-keyboard-response","300","516879","0.0-4.0-1.58","true"
"6717","ImagesDirect/VR95.png","188","test",",","image-keyboard-response","302","524102","0.0-4.0-1.59","true"
"4793","ImagesDirect/VL92.5.png","190","test",".","image-keyboard-response","304","529407","0.0-4.0-1.60","true"
"859","ImagesTennis/TR110.png","190","test",".","image-keyboard-response","306","530772","0.0-4.0-1.61","true"
"1438","ImagesSoccer/VR105.png","190","test",".","image-keyboard-response","308","532714","0.0-4.0-1.62","true"
"768","ImagesDirect/VR107.5.png","190","test",".","image-keyboard-response","310","533986","0.0-4.0-1.63","true"
"5813","ImagesDirect/VR90.png","188","test",",","image-keyboard-response","312","540306","0.0-4.0-1.64","true"
"1092","ImagesTennis/TL107.5.png","188","test",",","image-keyboard-response","314","541907","0.0-4.0-1.65","true"
"780","ImagesSoccer/VL110.png","188","test",",","image-keyboard-response","316","543208","0.0-4.0-1.66","true"
"2371","ImagesSoccer/VR92.5.png","188","test",",","image-keyboard-response","318","546087","0.0-4.0-1.67","true"
"748","ImagesSoccer/VL107.5.png","188","test",",","image-keyboard-response","320","547345","0.0-4.0-1.68","true"
"902","ImagesSoccer/VR110.png","190","test",".","image-keyboard-response","322","548763","0.0-4.0-1.69","true"
"2053","ImagesSoccer/VL90.png","190","test",".","image-keyboard-response","324","551322","0.0-4.0-1.70","true"
"6060","ImagesDirect/VR97.5.png","190","test",",","image-keyboard-response","326","557895","0.0-4.0-1.71","false"
"1405","ImagesDirect/VR100.png","190","test",".","image-keyboard-response","328","559815","0.0-4.0-1.72","true"
"6591","ImagesTennis/TL102.5.png","188","test",",","image-keyboard-response","330","566909","0.0-4.0-1.73","true"
"2327","ImagesSoccer/VR95.png","188","test",",","image-keyboard-response","332","569756","0.0-4.0-1.74","true"
"2073","ImagesDirect/VR110.png","190","test",".","image-keyboard-response","334","572343","0.0-4.0-1.75","true"
"990","ImagesTennis/TL110.png","188","test",",","image-keyboard-response","336","573849","0.0-4.0-1.76","true"
"5325","ImagesSoccer/VR100.png","190","test",".","image-keyboard-response","338","579682","0.0-4.0-1.77","true"
"7250","ImagesTennis/TR102.5.png","190","test",".","image-keyboard-response","340","587449","0.0-4.0-1.78","true"
"1146","ImagesDirect/VR105.png","190","test",".","image-keyboard-response","342","589106","0.0-4.0-1.79","true"
"6353","ImagesDirect/VL97.5.png","190","test",".","image-keyboard-response","344","595972","0.0-4.0-1.80","true"
"1785","ImagesSoccer/VL92.5.png","190","test",".","image-keyboard-response","346","598273","0.0-4.0-1.81","true"
"15111","ImagesSoccer/VL97.5.png","190","test",".","image-keyboard-response","348","613905","0.0-4.0-1.82","true"
"1646","ImagesDirect/VR102.5.png","190","test",".","image-keyboard-response","350","616069","0.0-4.0-1.83","true"
"2489","ImagesDirect/VL100.png","188","test",".","image-keyboard-response","352","619074","0.0-4.0-1.84","false"
"1426","ImagesTennis/TL92.5.png","190","test",".","image-keyboard-response","354","621019","0.0-4.0-1.85","true"
"1339","ImagesTennis/TL97.5.png","190","test",".","image-keyboard-response","356","622874","0.0-4.0-1.86","true"
"1221","ImagesDirect/VL110.png","188","test",",","image-keyboard-response","358","624604","0.0-4.0-1.87","true"
"22553","ImagesTennis/TR90.png","188","test",",","image-keyboard-response","360","647670","0.0-4.0-1.88","true"
"2285","ImagesTennis/TL90.png","190","test",".","image-keyboard-response","362","650471","0.0-4.0-1.89","true"
"1981","ImagesSoccer/VR97.5.png","190","test",",","image-keyboard-response","364","652967","0.0-4.0-1.90","false"
"884","ImagesDirect/VL107.5.png","188","test",",","image-keyboard-response","366","654354","0.0-4.0-1.91","true"
"1544","ImagesTennis/TR92.5.png","188","test",",","image-keyboard-response","368","656409","0.0-4.0-1.92","true"
"29775","ImagesDirect/VL95.png","190","test",".","image-keyboard-response","370","686696","0.0-4.0-1.93","true"
"1696","ImagesTennis/TR100.png","188","test",".","image-keyboard-response","372","688899","0.0-4.0-1.94","false"
"1469","ImagesTennis/TL105.png","188","test",",","image-keyboard-response","374","690873","0.0-4.0-1.95","true"
"1123","ImagesSoccer/VR107.5.png","190","test",".","image-keyboard-response","376","692500","0.0-4.0-1.96","true"
"1194","ImagesSoccer/VL105.png","188","test",",","image-keyboard-response","378","694210","0.0-4.0-1.97","true"
"1263","ImagesTennis/TR107.5.png","190","test",".","image-keyboard-response","380","695990","0.0-4.0-1.98","true"
"1464","ImagesSoccer/VL102.5.png","188","test",",","image-keyboard-response","382","697958","0.0-4.0-1.99","true"
"1318","ImagesSoccer/VR90.png","188","test",",","image-keyboard-response","384","699787","0.0-4.0-1.100","true"
"5461","ImagesTennis/TR97.5.png","188","test",",","image-keyboard-response","386","705756","0.0-4.0-1.101","true"
"5880","ImagesSoccer/VL95.png","188","test",".","image-keyboard-response","388","712141","0.0-4.0-1.102","false"
"3691","ImagesSoccer/VL100.png","188","test",".","image-keyboard-response","390","716336","0.0-4.0-1.103","false"
"6662","ImagesTennis/TL100.png","188","test",".","image-keyboard-response","392","723519","0.0-4.0-1.104","false"
"1184","ImagesDirect/VL102.5.png","188","test",",","image-keyboard-response","394","725208","0.0-4.0-1.105","true"
"53020","ImagesTennis/TR95.png","188","test",",","image-keyboard-response","396","778754","0.0-4.0-1.106","true"
"1276","ImagesDirect/VL105.png","188","test",",","image-keyboard-response","398","780542","0.0-4.0-1.107","true"
"7963","ImagesTennis/TL100.png","190","test",".","image-keyboard-response","400","789016","0.0-4.0-1.108","true"
"1543","ImagesSoccer/VL102.5.png","188","test",",","image-keyboard-response","402","791065","0.0-4.0-1.109","true"
"1519","ImagesTennis/TR110.png","190","test",".","image-keyboard-response","404","793088","0.0-4.0-1.110","true"
"2083","ImagesTennis/TL102.5.png","188","test",",","image-keyboard-response","406","795675","0.0-4.0-1.111","true"
"1008","ImagesDirect/VR95.png","190","test",",","image-keyboard-response","408","797192","0.0-4.0-1.112","false"
"2500","ImagesDirect/VL92.5.png","190","test",".","image-keyboard-response","410","800196","0.0-4.0-1.113","true"
"729","ImagesDirect/VL102.5.png","188","test",",","image-keyboard-response","412","801440","0.0-4.0-1.114","true"
"907","ImagesTennis/TL90.png","190","test",".","image-keyboard-response","414","802853","0.0-4.0-1.115","true"
"1378","ImagesTennis/TL97.5.png","190","test",".","image-keyboard-response","416","804740","0.0-4.0-1.116","true"
"685","ImagesSoccer/VL100.png","188","test",".","image-keyboard-response","418","805928","0.0-4.0-1.117","false"
"637","ImagesDirect/VL100.png","188","test",".","image-keyboard-response","420","807069","0.0-4.0-1.118","false"
"1338","ImagesTennis/TR102.5.png","188","test",".","image-keyboard-response","422","808911","0.0-4.0-1.119","false"
"597","ImagesDirect/VL107.5.png","188","test",",","image-keyboard-response","424","810015","0.0-4.0-1.120","true"
"1073","ImagesDirect/VL105.png","188","test",",","image-keyboard-response","426","811593","0.0-4.0-1.121","true"
"736","ImagesSoccer/VR110.png","190","test",".","image-keyboard-response","428","812840","0.0-4.0-1.122","true"
"2180","ImagesDirect/VR92.5.png","188","test",",","image-keyboard-response","430","815525","0.0-4.0-1.123","true"
"634","ImagesDirect/VL110.png","188","test",",","image-keyboard-response","432","816665","0.0-4.0-1.124","true"
"869","ImagesTennis/TL92.5.png","190","test",".","image-keyboard-response","434","818039","0.0-4.0-1.125","true"
"1458","ImagesSoccer/VR95.png","188","test",",","image-keyboard-response","436","820007","0.0-4.0-1.126","true"
"2014","ImagesSoccer/VL92.5.png","190","test",".","image-keyboard-response","438","822525","0.0-4.0-1.127","true"
"888","ImagesSoccer/VL105.png","188","test",",","image-keyboard-response","440","823916","0.0-4.0-1.128","true"
"698","ImagesSoccer/VL110.png","188","test",",","image-keyboard-response","442","825140","0.0-4.0-1.129","true"
"1835","ImagesTennis/TL107.5.png","188","test",",","image-keyboard-response","444","827482","0.0-4.0-1.130","true"
"1158","ImagesDirect/VR97.5.png","190","test",",","image-keyboard-response","446","829153","0.0-4.0-1.131","false"
"2428","ImagesTennis/TR90.png","188","test",",","image-keyboard-response","448","832088","0.0-4.0-1.132","true"
"1813","ImagesDirect/VR90.png","188","test",",","image-keyboard-response","450","834406","0.0-4.0-1.133","true"
"1161","ImagesTennis/TL110.png","188","test",",","image-keyboard-response","452","836086","0.0-4.0-1.134","true"
"1471","ImagesSoccer/VR90.png","188","test",",","image-keyboard-response","454","838061","0.0-4.0-1.135","true"
"2197","ImagesSoccer/VL97.5.png","190","test",".","image-keyboard-response","456","840768","0.0-4.0-1.136","true"
"619","ImagesTennis/TL95.png","190","test",".","image-keyboard-response","458","841895","0.0-4.0-1.137","true"
"1187","ImagesTennis/TR105.png","190","test",".","image-keyboard-response","460","843587","0.0-4.0-1.138","true"
"703","ImagesSoccer/VR102.5.png","190","test",".","image-keyboard-response","462","844796","0.0-4.0-1.139","true"
"1397","ImagesTennis/TR97.5.png","188","test",",","image-keyboard-response","464","846700","0.0-4.0-1.140","true"
"748","ImagesDirect/VR105.png","190","test",".","image-keyboard-response","466","847955","0.0-4.0-1.141","true"
"2156","ImagesDirect/VL97.5.png","188","test",".","image-keyboard-response","468","850626","0.0-4.0-1.142","false"
"1334","ImagesSoccer/VR92.5.png","190","test",",","image-keyboard-response","470","852468","0.0-4.0-1.143","false"
"729","ImagesDirect/VR107.5.png","190","test",".","image-keyboard-response","472","853705","0.0-4.0-1.144","true"
"2266","ImagesSoccer/VR105.png","190","test",".","image-keyboard-response","474","856476","0.0-4.0-1.145","true"
"1876","ImagesSoccer/VL107.5.png","188","test",",","image-keyboard-response","476","858865","0.0-4.0-1.146","true"
"4519","ImagesSoccer/VL95.png","188","test",".","image-keyboard-response","478","863892","0.0-4.0-1.147","false"
"1382","ImagesDirect/VR102.5.png","190","test",".","image-keyboard-response","480","865796","0.0-4.0-1.148","true"
"1847","ImagesDirect/VL90.png","190","test",".","image-keyboard-response","482","868158","0.0-4.0-1.149","true"
"1424","ImagesTennis/TR107.5.png","190","test",".","image-keyboard-response","484","870099","0.0-4.0-1.150","true"
"3311","ImagesDirect/VR110.png","190","test",".","image-keyboard-response","486","873923","0.0-4.0-1.151","true"
"7054","ImagesTennis/TR100.png","188","test",".","image-keyboard-response","488","881480","0.0-4.0-1.152","false"
"6724","ImagesDirect/VL95.png","188","test",".","image-keyboard-response","490","888710","0.0-4.0-1.153","false"
"892","ImagesSoccer/VL90.png","190","test",".","image-keyboard-response","492","890109","0.0-4.0-1.154","true"
"1398","ImagesDirect/VR100.png","190","test",".","image-keyboard-response","494","892024","0.0-4.0-1.155","true"
"2971","ImagesTennis/TL105.png","188","test",",","image-keyboard-response","496","895513","0.0-4.0-1.156","true"
"1015","ImagesTennis/TR95.png","188","test",",","image-keyboard-response","498","897036","0.0-4.0-1.157","true"
"624","ImagesTennis/TR92.5.png","188","test",",","image-keyboard-response","500","898177","0.0-4.0-1.158","true"
"2421","ImagesSoccer/VR100.png","190","test",".","image-keyboard-response","502","901105","0.0-4.0-1.159","true"
"745","ImagesSoccer/VR107.5.png","190","test",".","image-keyboard-response","504","902356","0.0-4.0-1.160","true"
"1624","ImagesSoccer/VR97.5.png","190","test",",","image-keyboard-response","506","904497","0.0-4.0-1.161","false"
"650","ImagesDirect/VL110.png","188","test",",","image-keyboard-response","508","905662","0.0-4.0-1.162","true"
"898","ImagesDirect/VR110.png","190","test",".","image-keyboard-response","510","907069","0.0-4.0-1.163","true"
"4304","ImagesSoccer/VL97.5.png","188","test",".","image-keyboard-response","512","911881","0.0-4.0-1.164","false"
"1137","ImagesSoccer/VR105.png","190","test",".","image-keyboard-response","514","913539","0.0-4.0-1.165","true"
"633","ImagesSoccer/VL107.5.png","188","test",",","image-keyboard-response","516","914678","0.0-4.0-1.166","true"
"937","ImagesDirect/VR105.png","190","test",".","image-keyboard-response","518","916120","0.0-4.0-1.167","true"
"1702","ImagesTennis/TR92.5.png","188","test",",","image-keyboard-response","520","918325","0.0-4.0-1.168","true"
"1220","ImagesSoccer/VR100.png","190","test",".","image-keyboard-response","522","920057","0.0-4.0-1.169","true"
"653","ImagesSoccer/VL110.png","188","test",",","image-keyboard-response","524","921226","0.0-4.0-1.170","true"
"1540","ImagesSoccer/VL102.5.png","188","test",",","image-keyboard-response","526","923271","0.0-4.0-1.171","true"
"1388","ImagesTennis/TR100.png","190","test",".","image-keyboard-response","528","925164","0.0-4.0-1.172","true"
"2773","ImagesTennis/TR102.5.png","190","test",".","image-keyboard-response","530","928440","0.0-4.0-1.173","true"
"3314","ImagesSoccer/VL105.png","188","test",",","image-keyboard-response","532","932262","0.0-4.0-1.174","true"
"2663","ImagesSoccer/VL95.png","188","test",".","image-keyboard-response","534","935441","0.0-4.0-1.175","false"
"1860","ImagesSoccer/VL92.5.png","188","test",".","image-keyboard-response","536","937812","0.0-4.0-1.176","false"
"2890","ImagesTennis/TL105.png","188","test",",","image-keyboard-response","538","941215","0.0-4.0-1.177","true"
"1420","ImagesTennis/TR95.png","188","test",",","image-keyboard-response","540","943141","0.0-4.0-1.178","true"
"889","ImagesTennis/TR107.5.png","190","test",".","image-keyboard-response","542","944534","0.0-4.0-1.179","true"
"1350","ImagesDirect/VR100.png","190","test",".","image-keyboard-response","544","946389","0.0-4.0-1.180","true"
"1569","ImagesSoccer/VR92.5.png","190","test",",","image-keyboard-response","546","948464","0.0-4.0-1.181","false"
"3313","ImagesDirect/VR92.5.png","188","test",",","image-keyboard-response","548","952292","0.0-4.0-1.182","true"
"1148","ImagesTennis/TL110.png","188","test",",","image-keyboard-response","550","953959","0.0-4.0-1.183","true"
"722","ImagesTennis/TL92.5.png","190","test",".","image-keyboard-response","552","955200","0.0-4.0-1.184","true"
"1395","ImagesDirect/VL97.5.png","188","test",".","image-keyboard-response","554","957099","0.0-4.0-1.185","false"
"1169","ImagesTennis/TL107.5.png","188","test",",","image-keyboard-response","556","958774","0.0-4.0-1.186","true"
"1178","ImagesTennis/TR90.png","188","test",",","image-keyboard-response","558","960456","0.0-4.0-1.187","true"
"1947","ImagesSoccer/VL90.png","190","test",".","image-keyboard-response","560","962909","0.0-4.0-1.188","true"
"2005","ImagesDirect/VL95.png","188","test",".","image-keyboard-response","562","965417","0.0-4.0-1.189","false"
"665","ImagesSoccer/VR110.png","190","test",".","image-keyboard-response","564","966590","0.0-4.0-1.190","true"
"1645","ImagesSoccer/VR102.5.png","190","test",".","image-keyboard-response","566","968741","0.0-4.0-1.191","true"
"1567","ImagesDirect/VR102.5.png","190","test",".","image-keyboard-response","568","970813","0.0-4.0-1.192","true"
"711","ImagesDirect/VL107.5.png","188","test",",","image-keyboard-response","570","972029","0.0-4.0-1.193","true"
"1289","ImagesTennis/TR105.png","190","test",".","image-keyboard-response","572","973835","0.0-4.0-1.194","true"
"1392","ImagesDirect/VR97.5.png","190","test",",","image-keyboard-response","574","975743","0.0-4.0-1.195","false"
"1321","ImagesSoccer/VR95.png","188","test",",","image-keyboard-response","576","977570","0.0-4.0-1.196","true"
"982","ImagesTennis/TR110.png","190","test",".","image-keyboard-response","578","979064","0.0-4.0-1.197","true"
"2309","ImagesTennis/TL97.5.png","190","test",".","image-keyboard-response","580","981882","0.0-4.0-1.198","true"
"1350","ImagesSoccer/VR97.5.png","190","test",",","image-keyboard-response","582","983740","0.0-4.0-1.199","false"
"1203","ImagesTennis/TR97.5.png","188","test",",","image-keyboard-response","584","985450","0.0-4.0-1.200","true"
"779","ImagesDirect/VL105.png","188","test",",","image-keyboard-response","586","986734","0.0-4.0-1.201","true"
"1413","ImagesSoccer/VL100.png","188","test",".","image-keyboard-response","588","988651","0.0-4.0-1.202","false"
"847","ImagesDirect/VL90.png","190","test",".","image-keyboard-response","590","990005","0.0-4.0-1.203","true"
"1326","ImagesTennis/TL100.png","190","test",".","image-keyboard-response","592","991843","0.0-4.0-1.204","true"
"985","ImagesDirect/VL102.5.png","188","test",",","image-keyboard-response","594","993336","0.0-4.0-1.205","true"
"1092","ImagesDirect/VL100.png","188","test",".","image-keyboard-response","596","994932","0.0-4.0-1.206","false"
"915","ImagesTennis/TL95.png","190","test",".","image-keyboard-response","598","996352","0.0-4.0-1.207","true"
"3663","ImagesDirect/VR95.png","190","test",",","image-keyboard-response","600","1000520","0.0-4.0-1.208","false"
"593","ImagesSoccer/VR107.5.png","190","test",".","image-keyboard-response","602","1001626","0.0-4.0-1.209","true"
"2406","ImagesDirect/VR90.png","188","test",",","image-keyboard-response","604","1004542","0.0-4.0-1.210","true"
"615","ImagesDirect/VR107.5.png","190","test",".","image-keyboard-response","606","1005674","0.0-4.0-1.211","true"
"1225","ImagesSoccer/VR90.png","188","test",",","image-keyboard-response","608","1007421","0.0-4.0-1.212","true"
"974","ImagesTennis/TL90.png","190","test",".","image-keyboard-response","610","1008910","0.0-4.0-1.213","true"
"2256","ImagesDirect/VL92.5.png","188","test",".","image-keyboard-response","612","1011671","0.0-4.0-1.214","false"
"3220","ImagesTennis/TL102.5.png","188","test",",","image-keyboard-response","614","1015404","0.0-4.0-1.215","true"
"3458","ImagesSoccer/VR97.5.png","188","test",",","image-keyboard-response","616","1019382","0.0-4.0-1.216","true"
"2673","ImagesDirect/VR90.png","188","test",",","image-keyboard-response","618","1022561","0.0-4.0-1.217","true"
"1200","ImagesDirect/VR105.png","190","test",".","image-keyboard-response","620","1024267","0.0-4.0-1.218","true"
"3099","ImagesSoccer/VR95.png","188","test",",","image-keyboard-response","622","1027873","0.0-4.0-1.219","true"
"1272","ImagesSoccer/VR110.png","190","test",".","image-keyboard-response","624","1029664","0.0-4.0-1.220","true"
"1148","ImagesTennis/TR107.5.png","190","test",".","image-keyboard-response","626","1031326","0.0-4.0-1.221","true"
"2577","ImagesDirect/VL97.5.png","188","test",".","image-keyboard-response","628","1034407","0.0-4.0-1.222","false"
"1871","ImagesDirect/VL105.png","188","test",",","image-keyboard-response","630","1036785","0.0-4.0-1.223","true"
"2036","ImagesTennis/TR110.png","190","test",".","image-keyboard-response","632","1039327","0.0-4.0-1.224","true"
"3321","ImagesDirect/VR95.png","190","test",",","image-keyboard-response","634","1043157","0.0-4.0-1.225","false"
"881","ImagesTennis/TR90.png","188","test",",","image-keyboard-response","636","1044552","0.0-4.0-1.226","true"
"1419","ImagesTennis/TR105.png","190","test",".","image-keyboard-response","638","1046485","0.0-4.0-1.227","true"
"2643","ImagesTennis/TR95.png","188","test",",","image-keyboard-response","640","1049632","0.0-4.0-1.228","true"
"3287","ImagesDirect/VR97.5.png","190","test",",","image-keyboard-response","642","1053435","0.0-4.0-1.229","false"
"3361","ImagesDirect/VL95.png","188","test",".","image-keyboard-response","644","1057300","0.0-4.0-1.230","false"
"1471","ImagesDirect/VR102.5.png","190","test",".","image-keyboard-response","646","1059285","0.0-4.0-1.231","true"
"1580","ImagesSoccer/VL90.png","190","test",".","image-keyboard-response","648","1061376","0.0-4.0-1.232","true"
"2479","ImagesSoccer/VL95.png","188","test",".","image-keyboard-response","650","1064359","0.0-4.0-1.233","false"
"3754","ImagesDirect/VL92.5.png","190","test",".","image-keyboard-response","652","1068620","0.0-4.0-1.234","true"
"919","ImagesDirect/VR107.5.png","190","test",".","image-keyboard-response","654","1070054","0.0-4.0-1.235","true"
"2683","ImagesSoccer/VR100.png","190","test",".","image-keyboard-response","656","1073247","0.0-4.0-1.236","true"
"816","ImagesDirect/VR110.png","190","test",".","image-keyboard-response","658","1074571","0.0-4.0-1.237","true"
"661","ImagesDirect/VL110.png","188","test",",","image-keyboard-response","660","1075741","0.0-4.0-1.238","true"
"1780","ImagesDirect/VL102.5.png","188","test",",","image-keyboard-response","662","1078045","0.0-4.0-1.239","true"
"674","ImagesDirect/VL107.5.png","188","test",",","image-keyboard-response","664","1079229","0.0-4.0-1.240","true"
"1791","ImagesTennis/TL102.5.png","188","test",",","image-keyboard-response","666","1081524","0.0-4.0-1.241","true"
"2983","ImagesTennis/TL107.5.png","188","test",",","image-keyboard-response","668","1085014","0.0-4.0-1.242","true"
"3154","ImagesTennis/TR100.png","188","test",".","image-keyboard-response","670","1088673","0.0-4.0-1.243","false"
"2947","ImagesSoccer/VR92.5.png","188","test",",","image-keyboard-response","672","1092126","0.0-4.0-1.244","true"
"2800","ImagesTennis/TL100.png","190","test",".","image-keyboard-response","674","1095433","0.0-4.0-1.245","true"
"1311","ImagesDirect/VL100.png","188","test",".","image-keyboard-response","676","1097251","0.0-4.0-1.246","false"
"939","ImagesSoccer/VL110.png","188","test",",","image-keyboard-response","678","1098698","0.0-4.0-1.247","true"
"993","ImagesTennis/TL110.png","188","test",",","image-keyboard-response","680","1100197","0.0-4.0-1.248","true"
"908","ImagesTennis/TL90.png","190","test",".","image-keyboard-response","682","1101612","0.0-4.0-1.249","true"
"1338","ImagesSoccer/VR105.png","190","test",".","image-keyboard-response","684","1103458","0.0-4.0-1.250","true"
"5980","ImagesTennis/TR102.5.png","188","test",".","image-keyboard-response","686","1109942","0.0-4.0-1.251","false"
"2461","ImagesTennis/TL95.png","190","test",".","image-keyboard-response","688","1112907","0.0-4.0-1.252","true"
"3415","ImagesTennis/TL105.png","188","test",",","image-keyboard-response","690","1116832","0.0-4.0-1.253","true"
"4772","ImagesSoccer/VL97.5.png","188","test",".","image-keyboard-response","692","1122110","0.0-4.0-1.254","false"
"1197","ImagesTennis/TR97.5.png","188","test",",","image-keyboard-response","694","1123813","0.0-4.0-1.255","true"
"3825","ImagesDirect/VR92.5.png","188","test",",","image-keyboard-response","696","1128152","0.0-4.0-1.256","true"
"3800","ImagesSoccer/VR102.5.png","190","test",".","image-keyboard-response","698","1132466","0.0-4.0-1.257","true"
"3141","ImagesSoccer/VL100.png","188","test",".","image-keyboard-response","700","1136126","0.0-4.0-1.258","false"
"1453","ImagesTennis/TR92.5.png","188","test",",","image-keyboard-response","702","1138097","0.0-4.0-1.259","true"
"1605","ImagesTennis/TL97.5.png","190","test",".","image-keyboard-response","704","1140211","0.0-4.0-1.260","true"
"845","ImagesSoccer/VL107.5.png","188","test",",","image-keyboard-response","706","1141562","0.0-4.0-1.261","true"
"2383","ImagesTennis/TL92.5.png","190","test",".","image-keyboard-response","708","1144449","0.0-4.0-1.262","true"
"1199","ImagesSoccer/VR107.5.png","190","test",".","image-keyboard-response","710","1146163","0.0-4.0-1.263","true"
"1169","ImagesSoccer/VL102.5.png","188","test",",","image-keyboard-response","712","1147835","0.0-4.0-1.264","true"
"1294","ImagesSoccer/VL105.png","188","test",",","image-keyboard-response","714","1149634","0.0-4.0-1.265","true"
"994","ImagesSoccer/VR90.png","188","test",",","image-keyboard-response","716","1151133","0.0-4.0-1.266","true"
"1241","ImagesDirect/VL90.png","190","test",".","image-keyboard-response","718","1152887","0.0-4.0-1.267","true"
"1116","ImagesSoccer/VL92.5.png","190","test",".","image-keyboard-response","720","1154513","0.0-4.0-1.268","true"
"1359","ImagesDirect/VR100.png","190","test",".","image-keyboard-response","722","1156382","0.0-4.0-1.269","true"
