"rt","stimulus","key_press","test_part","correct_response","trial_type","trial_index","time_elapsed","internal_node_id","correct"
"1130","ImagesCoins/10L90.png","190","test",".","image-keyboard-response","4","19813","0.0-3.0-1.0","true"
"875","ImagesCoins/10L107.5.png","188","test",",","image-keyboard-response","6","21193","0.0-3.0-1.1","true"
"708","ImagesCoins/10R90.png","190","test",",","image-keyboard-response","8","22403","0.0-3.0-1.2","false"
"825","ImagesCoins/10R110.png","190","test",".","image-keyboard-response","10","23732","0.0-3.0-1.3","true"
"1499","ImagesCoins/10R92.5.png","188","test",",","image-keyboard-response","12","25733","0.0-3.0-1.4","true"
"790","ImagesCoins/10R105.png","190","test",".","image-keyboard-response","14","27029","0.0-3.0-1.5","true"
"1766","ImagesCoins/10L92.5.png","190","test",".","image-keyboard-response","16","29301","0.0-3.0-1.6","true"
"2844","ImagesCoins/10R97.5.png","188","test",",","image-keyboard-response","18","32651","0.0-3.0-1.7","true"
"792","ImagesCoins/10R107.5.png","190","test",".","image-keyboard-response","20","33950","0.0-3.0-1.8","true"
"974","ImagesCoins/10L105.png","188","test",",","image-keyboard-response","22","35430","0.0-3.0-1.9","true"
"987","ImagesCoins/10L100.png","190","test",".","image-keyboard-response","24","36918","0.0-3.0-1.10","true"
"1454","ImagesCoins/10R95.png","188","test",",","image-keyboard-response","26","38874","0.0-3.0-1.11","true"
"663","ImagesCoins/10R102.5.png","190","test",".","image-keyboard-response","28","40042","0.0-3.0-1.12","true"
"924","ImagesCoins/10L95.png","190","test",".","image-keyboard-response","30","41467","0.0-3.0-1.13","true"
"1392","ImagesCoins/10L97.5.png","188","test",".","image-keyboard-response","32","43365","0.0-3.0-1.14","false"
"786","ImagesCoins/10L102.5.png","188","test",",","image-keyboard-response","34","44655","0.0-3.0-1.15","true"
"682","ImagesCoins/10R100.png","190","test",".","image-keyboard-response","36","45840","0.0-3.0-1.16","true"
"691","ImagesCoins/10L110.png","188","test",",","image-keyboard-response","38","47033","0.0-3.0-1.17","true"
"888","ImagesCoins/10R105.png","190","test",".","image-keyboard-response","40","48423","0.0-3.0-1.18","true"
"1243","ImagesCoins/10R100.png","190","test",".","image-keyboard-response","42","50171","0.0-3.0-1.19","true"
"1219","ImagesCoins/10L95.png","190","test",".","image-keyboard-response","44","51892","0.0-3.0-1.20","true"
"1361","ImagesCoins/10L97.5.png","190","test",".","image-keyboard-response","46","53755","0.0-3.0-1.21","true"
"591","ImagesCoins/10L92.5.png","190","test",".","image-keyboard-response","48","54852","0.0-3.0-1.22","true"
"922","ImagesCoins/10R95.png","188","test",",","image-keyboard-response","50","56280","0.0-3.0-1.23","true"
"949","ImagesCoins/10R102.5.png","188","test",".","image-keyboard-response","52","57735","0.0-3.0-1.24","false"
"638","ImagesCoins/10R90.png","188","test",",","image-keyboard-response","54","58876","0.0-3.0-1.25","true"
"787","ImagesCoins/10L100.png","190","test",".","image-keyboard-response","56","60165","0.0-3.0-1.26","true"
"652","ImagesCoins/10L90.png","190","test",".","image-keyboard-response","58","61323","0.0-3.0-1.27","true"
"654","ImagesCoins/10R107.5.png","190","test",".","image-keyboard-response","60","62483","0.0-3.0-1.28","true"
"664","ImagesCoins/10R110.png","190","test",".","image-keyboard-response","62","63653","0.0-3.0-1.29","true"
"1337","ImagesCoins/10L102.5.png","188","test",",","image-keyboard-response","64","65494","0.0-3.0-1.30","true"
"1339","ImagesCoins/10L110.png","188","test",",","image-keyboard-response","66","67337","0.0-3.0-1.31","true"
"1103","ImagesCoins/10R97.5.png","188","test",",","image-keyboard-response","68","68943","0.0-3.0-1.32","true"
"609","ImagesCoins/10R92.5.png","190","test",",","image-keyboard-response","70","70058","0.0-3.0-1.33","false"
"498","ImagesCoins/10L105.png","188","test",",","image-keyboard-response","72","71059","0.0-3.0-1.34","true"
"641","ImagesCoins/10L107.5.png","188","test",",","image-keyboard-response","74","72201","0.0-3.0-1.35","true"
"758","ImagesCoins/10L92.5.png","190","test",".","image-keyboard-response","76","73465","0.0-3.0-1.36","true"
"627","ImagesCoins/10R102.5.png","190","test",".","image-keyboard-response","78","74594","0.0-3.0-1.37","true"
"618","ImagesCoins/10L110.png","188","test",",","image-keyboard-response","80","75718","0.0-3.0-1.38","true"
"1221","ImagesCoins/10R92.5.png","188","test",",","image-keyboard-response","82","77444","0.0-3.0-1.39","true"
"623","ImagesCoins/10L102.5.png","188","test",",","image-keyboard-response","84","78572","0.0-3.0-1.40","true"
"750","ImagesCoins/10L100.png","188","test",".","image-keyboard-response","86","79827","0.0-3.0-1.41","false"
"743","ImagesCoins/10R95.png","190","test",",","image-keyboard-response","88","81075","0.0-3.0-1.42","false"
"578","ImagesCoins/10L107.5.png","188","test",",","image-keyboard-response","90","82156","0.0-3.0-1.43","true"
"619","ImagesCoins/10R105.png","190","test",".","image-keyboard-response","92","83282","0.0-3.0-1.44","true"
"680","ImagesCoins/10L97.5.png","188","test",".","image-keyboard-response","94","84466","0.0-3.0-1.45","false"
"563","ImagesCoins/10L105.png","188","test",",","image-keyboard-response","96","85532","0.0-3.0-1.46","true"
"557","ImagesCoins/10R107.5.png","190","test",".","image-keyboard-response","98","86591","0.0-3.0-1.47","true"
"555","ImagesCoins/10R100.png","190","test",".","image-keyboard-response","100","87649","0.0-3.0-1.48","true"
"1071","ImagesCoins/10R97.5.png","190","test",",","image-keyboard-response","102","89226","0.0-3.0-1.49","false"
"749","ImagesCoins/10R90.png","188","test",",","image-keyboard-response","104","90481","0.0-3.0-1.50","true"
"708","ImagesCoins/10L90.png","190","test",".","image-keyboard-response","106","91695","0.0-3.0-1.51","true"
"725","ImagesCoins/10L95.png","188","test",".","image-keyboard-response","108","92922","0.0-3.0-1.52","false"
"561","ImagesCoins/10R110.png","190","test",".","image-keyboard-response","110","93989","0.0-3.0-1.53","true"
"1203","ImagesCoins/10L107.5.png","190","test",",","image-keyboard-response","112","95694","0.0-3.0-1.54","false"
"546","ImagesCoins/10L105.png","188","test",",","image-keyboard-response","114","96742","0.0-3.0-1.55","true"
"646","ImagesCoins/10R110.png","190","test",".","image-keyboard-response","116","97894","0.0-3.0-1.56","true"
"1762","ImagesCoins/10R107.5.png","190","test",".","image-keyboard-response","118","100162","0.0-3.0-1.57","true"
"4170","ImagesCoins/10L97.5.png","188","test",".","image-keyboard-response","120","104838","0.0-3.0-1.58","false"
"4739","ImagesCoins/10R100.png","190","test",".","image-keyboard-response","122","110083","0.0-3.0-1.59","true"
"808","ImagesCoins/10L100.png","188","test",".","image-keyboard-response","124","111398","0.0-3.0-1.60","false"
"1485","ImagesCoins/10R92.5.png","188","test",",","image-keyboard-response","126","113388","0.0-3.0-1.61","true"
"1151","ImagesCoins/10R95.png","190","test",",","image-keyboard-response","128","115042","0.0-3.0-1.62","false"
"6006","ImagesCoins/10R97.5.png","190","test",",","image-keyboard-response","130","121551","0.0-3.0-1.63","false"
"522","ImagesCoins/10L110.png","188","test",",","image-keyboard-response","132","122581","0.0-3.0-1.64","true"
"496","ImagesCoins/10R105.png","190","test",".","image-keyboard-response","134","123580","0.0-3.0-1.65","true"
"920","ImagesCoins/10R90.png","188","test",",","image-keyboard-response","136","125002","0.0-3.0-1.66","true"
"666","ImagesCoins/10R102.5.png","190","test",".","image-keyboard-response","138","126173","0.0-3.0-1.67","true"
"825","ImagesCoins/10L90.png","190","test",".","image-keyboard-response","140","127501","0.0-3.0-1.68","true"
"567","ImagesCoins/10L95.png","188","test",".","image-keyboard-response","142","128574","0.0-3.0-1.69","false"
"831","ImagesCoins/10L92.5.png","190","test",".","image-keyboard-response","144","129908","0.0-3.0-1.70","true"
"547","ImagesCoins/10L102.5.png","188","test",",","image-keyboard-response","146","130957","0.0-3.0-1.71","true"
"573","ImagesCoins/10L105.png","188","test",",","image-keyboard-response","148","132031","0.0-3.0-1.72","true"
"443","ImagesCoins/10L107.5.png","188","test",",","image-keyboard-response","150","132975","0.0-3.0-1.73","true"
"953","ImagesCoins/10L95.png","190","test",".","image-keyboard-response","152","134430","0.0-3.0-1.74","true"
"756","ImagesCoins/10R100.png","190","test",".","image-keyboard-response","154","135688","0.0-3.0-1.75","true"
"684","ImagesCoins/10R90.png","188","test",",","image-keyboard-response","156","136875","0.0-3.0-1.76","true"
"564","ImagesCoins/10L102.5.png","188","test",",","image-keyboard-response","158","137942","0.0-3.0-1.77","true"
"1231","ImagesCoins/10L100.png","188","test",".","image-keyboard-response","160","139678","0.0-3.0-1.78","false"
"667","ImagesCoins/10R92.5.png","190","test",",","image-keyboard-response","162","140847","0.0-3.0-1.79","false"
"566","ImagesCoins/10R107.5.png","190","test",".","image-keyboard-response","164","141916","0.0-3.0-1.80","true"
"1063","ImagesCoins/10L92.5.png","190","test",".","image-keyboard-response","166","143481","0.0-3.0-1.81","true"
"1177","ImagesCoins/10R97.5.png","190","test",",","image-keyboard-response","168","145163","0.0-3.0-1.82","false"
"659","ImagesCoins/10R105.png","190","test",".","image-keyboard-response","170","146324","0.0-3.0-1.83","true"
"535","ImagesCoins/10R110.png","190","test",".","image-keyboard-response","172","147365","0.0-3.0-1.84","true"
"1123","ImagesCoins/10L90.png","190","test",".","image-keyboard-response","174","148990","0.0-3.0-1.85","true"
"699","ImagesCoins/10L110.png","188","test",",","image-keyboard-response","176","150196","0.0-3.0-1.86","true"
"1037","ImagesCoins/10R95.png","188","test",",","image-keyboard-response","178","151737","0.0-3.0-1.87","true"
"700","ImagesCoins/10R102.5.png","190","test",".","image-keyboard-response","180","152939","0.0-3.0-1.88","true"
"967","ImagesCoins/10L97.5.png","190","test",".","image-keyboard-response","182","154408","0.0-3.0-1.89","true"
"2170","ImagesDirect/VR95.png","188","test",",","image-keyboard-response","184","157080","0.0-4.0-1.0","true"
"1482","ImagesSoccer/VL92.5.png","190","test",".","image-keyboard-response","186","159064","0.0-4.0-1.1","true"
"1057","ImagesTennis/TL102.5.png","190","test",",","image-keyboard-response","188","160624","0.0-4.0-1.2","false"
"1072","ImagesTennis/TR92.5.png","188","test",",","image-keyboard-response","190","162199","0.0-4.0-1.3","true"
"2195","ImagesTennis/TR100.png","188","test",".","image-keyboard-response","192","164900","0.0-4.0-1.4","false"
"3916","ImagesSoccer/VR92.5.png","190","test",",","image-keyboard-response","194","169322","0.0-4.0-1.5","false"
"1305","ImagesTennis/TR110.png","190","test",".","image-keyboard-response","196","171130","0.0-4.0-1.6","true"
"1323","ImagesSoccer/VR110.png","190","test",".","image-keyboard-response","198","172957","0.0-4.0-1.7","true"
"7844","ImagesSoccer/VL97.5.png","190","test",".","image-keyboard-response","200","181303","0.0-4.0-1.8","true"
"1204","ImagesDirect/VL92.5.png","188","test",".","image-keyboard-response","202","183012","0.0-4.0-1.9","false"
"7109","ImagesDirect/VR100.png","190","test",".","image-keyboard-response","204","190622","0.0-4.0-1.10","true"
"2303","ImagesTennis/TR107.5.png","190","test",".","image-keyboard-response","206","193427","0.0-4.0-1.11","true"
"2867","ImagesSoccer/VL107.5.png","188","test",",","image-keyboard-response","208","196800","0.0-4.0-1.12","true"
"1441","ImagesSoccer/VL102.5.png","188","test",",","image-keyboard-response","210","198747","0.0-4.0-1.13","true"
"1238","ImagesTennis/TL92.5.png","190","test",".","image-keyboard-response","212","200487","0.0-4.0-1.14","true"
"812","ImagesTennis/TL90.png","190","test",".","image-keyboard-response","214","201805","0.0-4.0-1.15","true"
"1681","ImagesTennis/TR102.5.png","188","test",".","image-keyboard-response","216","203991","0.0-4.0-1.16","false"
"1801","ImagesDirect/VR97.5.png","190","test",",","image-keyboard-response","218","206297","0.0-4.0-1.17","false"
"1395","ImagesSoccer/VR100.png","190","test",".","image-keyboard-response","220","208194","0.0-4.0-1.18","true"
"935","ImagesSoccer/VL110.png","188","test",",","image-keyboard-response","222","209632","0.0-4.0-1.19","true"
"1591","ImagesSoccer/VR95.png","190","test",",","image-keyboard-response","224","211725","0.0-4.0-1.20","false"
"1429","ImagesSoccer/VR102.5.png","190","test",".","image-keyboard-response","226","213656","0.0-4.0-1.21","true"
"1456","ImagesTennis/TR95.png","188","test",",","image-keyboard-response","228","215618","0.0-4.0-1.22","true"
"747","ImagesTennis/TR105.png","190","test",".","image-keyboard-response","230","216871","0.0-4.0-1.23","true"
"712","ImagesSoccer/VL105.png","188","test",",","image-keyboard-response","232","218088","0.0-4.0-1.24","true"
"767","ImagesDirect/VL102.5.png","188","test",",","image-keyboard-response","234","219358","0.0-4.0-1.25","true"
"823","ImagesDirect/VL97.5.png","188","test",".","image-keyboard-response","236","220685","0.0-4.0-1.26","false"
"1815","ImagesTennis/TR97.5.png","188","test",",","image-keyboard-response","238","223003","0.0-4.0-1.27","true"
"1111","ImagesDirect/VL95.png","190","test",".","image-keyboard-response","240","224620","0.0-4.0-1.28","true"
"748","ImagesTennis/TR90.png","188","test",",","image-keyboard-response","242","225872","0.0-4.0-1.29","true"
"677","ImagesSoccer/VR107.5.png","190","test",".","image-keyboard-response","244","227055","0.0-4.0-1.30","true"
"1219","ImagesDirect/VL90.png","190","test",".","image-keyboard-response","246","228779","0.0-4.0-1.31","true"
"1282","ImagesDirect/VR110.png","190","test",".","image-keyboard-response","248","230563","0.0-4.0-1.32","true"
"795","ImagesDirect/VL105.png","188","test",",","image-keyboard-response","250","231860","0.0-4.0-1.33","true"
"1028","ImagesDirect/VL100.png","188","test",".","image-keyboard-response","252","233390","0.0-4.0-1.34","false"
"1005","ImagesSoccer/VR90.png","188","test",",","image-keyboard-response","254","234901","0.0-4.0-1.35","true"
"939","ImagesTennis/TL110.png","188","test",",","image-keyboard-response","256","236342","0.0-4.0-1.36","true"
"1402","ImagesDirect/VR105.png","190","test",".","image-keyboard-response","258","238250","0.0-4.0-1.37","true"
"202","ImagesDirect/VL107.5.png","188","test",",","image-keyboard-response","260","238958","0.0-4.0-1.38","true"
"874","ImagesDirect/VL110.png","188","test",",","image-keyboard-response","262","240336","0.0-4.0-1.39","true"
"1407","ImagesDirect/VR90.png","188","test",",","image-keyboard-response","264","242249","0.0-4.0-1.40","true"
"1175","ImagesSoccer/VL95.png","190","test",".","image-keyboard-response","266","243930","0.0-4.0-1.41","true"
"687","ImagesSoccer/VR105.png","190","test",".","image-keyboard-response","268","245123","0.0-4.0-1.42","true"
"1016","ImagesTennis/TL105.png","188","test",",","image-keyboard-response","270","246645","0.0-4.0-1.43","true"
"1398","ImagesTennis/TL100.png","188","test",".","image-keyboard-response","272","248548","0.0-4.0-1.44","false"
"1256","ImagesSoccer/VL90.png","190","test",".","image-keyboard-response","274","250305","0.0-4.0-1.45","true"
"1868","ImagesDirect/VR107.5.png","188","test",".","image-keyboard-response","276","252674","0.0-4.0-1.46","false"
"794","ImagesTennis/TL107.5.png","188","test",",","image-keyboard-response","278","253973","0.0-4.0-1.47","true"
"1416","ImagesDirect/VR102.5.png","190","test",".","image-keyboard-response","280","255894","0.0-4.0-1.48","true"
"2084","ImagesSoccer/VR97.5.png","190","test",",","image-keyboard-response","282","258485","0.0-4.0-1.49","false"
"1158","ImagesTennis/TL95.png","190","test",".","image-keyboard-response","284","260149","0.0-4.0-1.50","true"
"2366","ImagesDirect/VR92.5.png","188","test",",","image-keyboard-response","286","263019","0.0-4.0-1.51","true"
"971","ImagesTennis/TL97.5.png","190","test",".","image-keyboard-response","288","264497","0.0-4.0-1.52","true"
"1289","ImagesSoccer/VL100.png","188","test",".","image-keyboard-response","290","266288","0.0-4.0-1.53","false"
"599","ImagesSoccer/VL102.5.png","188","test",",","image-keyboard-response","292","267393","0.0-4.0-1.54","true"
"704","ImagesDirect/VL100.png","188","test",".","image-keyboard-response","294","268603","0.0-4.0-1.55","false"
"690","ImagesTennis/TL97.5.png","190","test",".","image-keyboard-response","296","269799","0.0-4.0-1.56","true"
"767","ImagesTennis/TL102.5.png","190","test",",","image-keyboard-response","298","271072","0.0-4.0-1.57","false"
"882","ImagesTennis/TR105.png","190","test",".","image-keyboard-response","300","272460","0.0-4.0-1.58","true"
"706","ImagesTennis/TR97.5.png","188","test",",","image-keyboard-response","302","273672","0.0-4.0-1.59","true"
"900","ImagesSoccer/VR95.png","188","test",",","image-keyboard-response","304","275074","0.0-4.0-1.60","true"
"934","ImagesSoccer/VL105.png","188","test",",","image-keyboard-response","306","276511","0.0-4.0-1.61","true"
"714","ImagesDirect/VR107.5.png","190","test",".","image-keyboard-response","308","277728","0.0-4.0-1.62","true"
"1052","ImagesTennis/TL92.5.png","190","test",".","image-keyboard-response","310","279283","0.0-4.0-1.63","true"
"643","ImagesSoccer/VL110.png","188","test",",","image-keyboard-response","312","280432","0.0-4.0-1.64","true"
"921","ImagesDirect/VL90.png","190","test",".","image-keyboard-response","314","281859","0.0-4.0-1.65","true"
"730","ImagesDirect/VR105.png","190","test",".","image-keyboard-response","316","283093","0.0-4.0-1.66","true"
"616","ImagesSoccer/VL100.png","188","test",".","image-keyboard-response","318","284214","0.0-4.0-1.67","false"
"706","ImagesTennis/TL100.png","190","test",".","image-keyboard-response","320","285424","0.0-4.0-1.68","true"
"603","ImagesDirect/VL105.png","188","test",",","image-keyboard-response","322","286530","0.0-4.0-1.69","true"
"796","ImagesDirect/VL92.5.png","190","test",".","image-keyboard-response","324","287830","0.0-4.0-1.70","true"
"650","ImagesTennis/TL107.5.png","188","test",",","image-keyboard-response","326","288986","0.0-4.0-1.71","true"
"585","ImagesDirect/VR100.png","190","test",".","image-keyboard-response","328","290077","0.0-4.0-1.72","true"
"591","ImagesSoccer/VL107.5.png","188","test",",","image-keyboard-response","330","291169","0.0-4.0-1.73","true"
"522","ImagesSoccer/VR107.5.png","190","test",".","image-keyboard-response","332","292194","0.0-4.0-1.74","true"
"1073","ImagesTennis/TL105.png","188","test",",","image-keyboard-response","334","293769","0.0-4.0-1.75","true"
"601","ImagesTennis/TR102.5.png","190","test",".","image-keyboard-response","336","294876","0.0-4.0-1.76","true"
"558","ImagesDirect/VL107.5.png","188","test",",","image-keyboard-response","338","295938","0.0-4.0-1.77","true"
"623","ImagesTennis/TR92.5.png","188","test",",","image-keyboard-response","340","297067","0.0-4.0-1.78","true"
"582","ImagesSoccer/VR97.5.png","190","test",",","image-keyboard-response","342","298153","0.0-4.0-1.79","false"
"629","ImagesSoccer/VR90.png","188","test",",","image-keyboard-response","344","299285","0.0-4.0-1.80","true"
"694","ImagesTennis/TL95.png","190","test",".","image-keyboard-response","346","300485","0.0-4.0-1.81","true"
"1538","ImagesDirect/VR95.png","190","test",",","image-keyboard-response","348","302530","0.0-4.0-1.82","false"
"798","ImagesSoccer/VL97.5.png","188","test",".","image-keyboard-response","350","303833","0.0-4.0-1.83","false"
"564","ImagesDirect/VL110.png","188","test",",","image-keyboard-response","352","304900","0.0-4.0-1.84","true"
"1304","ImagesDirect/VL97.5.png","188","test",".","image-keyboard-response","354","306711","0.0-4.0-1.85","false"
"508","ImagesSoccer/VR102.5.png","190","test",".","image-keyboard-response","356","307723","0.0-4.0-1.86","true"
"385","ImagesSoccer/VR110.png","190","test",".","image-keyboard-response","358","308611","0.0-4.0-1.87","true"
"557","ImagesTennis/TR110.png","190","test",".","image-keyboard-response","360","309672","0.0-4.0-1.88","true"
"534","ImagesTennis/TR107.5.png","190","test",".","image-keyboard-response","362","310713","0.0-4.0-1.89","true"
"687","ImagesSoccer/VR92.5.png","188","test",",","image-keyboard-response","364","311902","0.0-4.0-1.90","true"
"706","ImagesTennis/TL110.png","188","test",",","image-keyboard-response","366","313112","0.0-4.0-1.91","true"
"698","ImagesDirect/VL102.5.png","188","test",",","image-keyboard-response","368","314316","0.0-4.0-1.92","true"
"537","ImagesSoccer/VR105.png","190","test",".","image-keyboard-response","370","315354","0.0-4.0-1.93","true"
"952","ImagesTennis/TR100.png","190","test",".","image-keyboard-response","372","316812","0.0-4.0-1.94","true"
"918","ImagesTennis/TR95.png","188","test",",","image-keyboard-response","374","318232","0.0-4.0-1.95","true"
"835","ImagesSoccer/VL95.png","190","test",".","image-keyboard-response","376","319573","0.0-4.0-1.96","true"
"477","ImagesTennis/TL90.png","190","test",".","image-keyboard-response","378","320551","0.0-4.0-1.97","true"
"1209","ImagesSoccer/VR100.png","190","test",".","image-keyboard-response","380","322266","0.0-4.0-1.98","true"
"790","ImagesSoccer/VL90.png","190","test",".","image-keyboard-response","382","323559","0.0-4.0-1.99","true"
"574","ImagesDirect/VR110.png","190","test",".","image-keyboard-response","384","324639","0.0-4.0-1.100","true"
"1573","ImagesDirect/VR92.5.png","190","test",",","image-keyboard-response","386","326717","0.0-4.0-1.101","false"
"1542","ImagesDirect/VL95.png","188","test",".","image-keyboard-response","388","328762","0.0-4.0-1.102","false"
"937","ImagesTennis/TR90.png","188","test",",","image-keyboard-response","390","330202","0.0-4.0-1.103","true"
"702","ImagesDirect/VR102.5.png","190","test",".","image-keyboard-response","392","331406","0.0-4.0-1.104","true"
"1422","ImagesDirect/VR90.png","188","test",",","image-keyboard-response","394","333335","0.0-4.0-1.105","true"
"1030","ImagesSoccer/VL92.5.png","190","test",".","image-keyboard-response","396","334871","0.0-4.0-1.106","true"
"1225","ImagesDirect/VR97.5.png","188","test",",","image-keyboard-response","398","336598","0.0-4.0-1.107","true"
"784","ImagesTennis/TR107.5.png","190","test",".","image-keyboard-response","400","337888","0.0-4.0-1.108","true"
"1392","ImagesDirect/VR102.5.png","190","test",".","image-keyboard-response","402","339785","0.0-4.0-1.109","true"
"628","ImagesTennis/TR95.png","188","test",",","image-keyboard-response","404","340919","0.0-4.0-1.110","true"
"612","ImagesSoccer/VL97.5.png","188","test",".","image-keyboard-response","406","342033","0.0-4.0-1.111","false"
"493","ImagesSoccer/VL110.png","188","test",",","image-keyboard-response","408","343033","0.0-4.0-1.112","true"
"558","ImagesDirect/VR107.5.png","190","test",".","image-keyboard-response","410","344097","0.0-4.0-1.113","true"
"1065","ImagesTennis/TL100.png","190","test",".","image-keyboard-response","412","345668","0.0-4.0-1.114","true"
"1266","ImagesSoccer/VR102.5.png","190","test",".","image-keyboard-response","414","347440","0.0-4.0-1.115","true"
"854","ImagesTennis/TR105.png","190","test",".","image-keyboard-response","416","348800","0.0-4.0-1.116","true"
"1047","ImagesSoccer/VL100.png","188","test",".","image-keyboard-response","418","350354","0.0-4.0-1.117","false"
"561","ImagesSoccer/VR100.png","190","test",".","image-keyboard-response","420","351420","0.0-4.0-1.118","true"
"1157","ImagesSoccer/VL90.png","190","test",".","image-keyboard-response","422","353083","0.0-4.0-1.119","true"
"1095","ImagesTennis/TR102.5.png","190","test",".","image-keyboard-response","424","354682","0.0-4.0-1.120","true"
"585","ImagesTennis/TL102.5.png","188","test",",","image-keyboard-response","426","355773","0.0-4.0-1.121","true"
"1194","ImagesTennis/TR100.png","190","test",".","image-keyboard-response","428","357469","0.0-4.0-1.122","true"
"516","ImagesSoccer/VL107.5.png","188","test",",","image-keyboard-response","430","358492","0.0-4.0-1.123","true"
"1147","ImagesTennis/TR97.5.png","190","test",",","image-keyboard-response","432","360140","0.0-4.0-1.124","false"
"572","ImagesTennis/TR110.png","190","test",".","image-keyboard-response","434","361218","0.0-4.0-1.125","true"
"592","ImagesTennis/TR92.5.png","188","test",",","image-keyboard-response","436","362312","0.0-4.0-1.126","true"
"739","ImagesSoccer/VL105.png","188","test",",","image-keyboard-response","438","363553","0.0-4.0-1.127","true"
"767","ImagesSoccer/VL95.png","188","test",".","image-keyboard-response","440","364826","0.0-4.0-1.128","false"
"548","ImagesDirect/VL107.5.png","188","test",",","image-keyboard-response","442","365880","0.0-4.0-1.129","true"
"494","ImagesSoccer/VR110.png","190","test",".","image-keyboard-response","444","366879","0.0-4.0-1.130","true"
"569","ImagesSoccer/VR95.png","190","test",",","image-keyboard-response","446","367951","0.0-4.0-1.131","false"
"928","ImagesTennis/TL97.5.png","190","test",".","image-keyboard-response","448","369384","0.0-4.0-1.132","true"
"562","ImagesTennis/TL92.5.png","190","test",".","image-keyboard-response","450","370448","0.0-4.0-1.133","true"
"713","ImagesTennis/TL107.5.png","188","test",",","image-keyboard-response","452","371664","0.0-4.0-1.134","true"
"876","ImagesDirect/VL92.5.png","190","test",".","image-keyboard-response","454","373046","0.0-4.0-1.135","true"
"577","ImagesDirect/VR105.png","190","test",".","image-keyboard-response","456","374129","0.0-4.0-1.136","true"
"895","ImagesTennis/TL90.png","190","test",".","image-keyboard-response","458","375529","0.0-4.0-1.137","true"
"628","ImagesDirect/VL105.png","188","test",",","image-keyboard-response","460","376660","0.0-4.0-1.138","true"
"582","ImagesSoccer/VR107.5.png","190","test",".","image-keyboard-response","462","377748","0.0-4.0-1.139","true"
"547","ImagesDirect/VR110.png","190","test",".","image-keyboard-response","464","378802","0.0-4.0-1.140","true"
"686","ImagesDirect/VL110.png","188","test",",","image-keyboard-response","466","379993","0.0-4.0-1.141","true"
"1008","ImagesDirect/VL102.5.png","188","test",",","image-keyboard-response","468","381508","0.0-4.0-1.142","true"
"2082","ImagesTennis/TL105.png","188","test",",","image-keyboard-response","470","384096","0.0-4.0-1.143","true"
"968","ImagesDirect/VR95.png","190","test",",","image-keyboard-response","472","385570","0.0-4.0-1.144","false"
"1088","ImagesDirect/VL90.png","190","test",".","image-keyboard-response","474","387163","0.0-4.0-1.145","true"
"769","ImagesTennis/TR90.png","188","test",",","image-keyboard-response","476","388438","0.0-4.0-1.146","true"
"992","ImagesSoccer/VR105.png","190","test",".","image-keyboard-response","478","389935","0.0-4.0-1.147","true"
"770","ImagesDirect/VL100.png","188","test",".","image-keyboard-response","480","391208","0.0-4.0-1.148","false"
"924","ImagesSoccer/VR92.5.png","190","test",",","image-keyboard-response","482","392635","0.0-4.0-1.149","false"
"656","ImagesDirect/VR92.5.png","190","test",",","image-keyboard-response","484","393797","0.0-4.0-1.150","false"
"1389","ImagesTennis/TL110.png","188","test",",","image-keyboard-response","486","395688","0.0-4.0-1.151","true"
"2694","ImagesDirect/VL97.5.png","190","test",".","image-keyboard-response","488","398885","0.0-4.0-1.152","true"
"467","ImagesSoccer/VR97.5.png","190","test",",","image-keyboard-response","490","399858","0.0-4.0-1.153","false"
"890","ImagesDirect/VL95.png","190","test",".","image-keyboard-response","492","401250","0.0-4.0-1.154","true"
"1253","ImagesSoccer/VR90.png","190","test",",","image-keyboard-response","494","403005","0.0-4.0-1.155","false"
"2031","ImagesDirect/VR90.png","188","test",",","image-keyboard-response","496","405538","0.0-4.0-1.156","true"
"1821","ImagesDirect/VR97.5.png","190","test",",","image-keyboard-response","498","407865","0.0-4.0-1.157","false"
"1837","ImagesDirect/VR100.png","190","test",".","image-keyboard-response","500","410206","0.0-4.0-1.158","true"
"961","ImagesTennis/TL95.png","190","test",".","image-keyboard-response","502","411670","0.0-4.0-1.159","true"
"3091","ImagesSoccer/VL102.5.png","188","test",",","image-keyboard-response","504","415268","0.0-4.0-1.160","true"
"1638","ImagesSoccer/VL92.5.png","190","test",".","image-keyboard-response","506","417411","0.0-4.0-1.161","true"
"636","ImagesDirect/VL107.5.png","188","test",",","image-keyboard-response","508","418553","0.0-4.0-1.162","true"
"864","ImagesTennis/TR90.png","188","test",",","image-keyboard-response","510","419924","0.0-4.0-1.163","true"
"830","ImagesSoccer/VR95.png","188","test",",","image-keyboard-response","512","421260","0.0-4.0-1.164","true"
"701","ImagesTennis/TR97.5.png","188","test",",","image-keyboard-response","514","422466","0.0-4.0-1.165","true"
"873","ImagesTennis/TL110.png","188","test",",","image-keyboard-response","516","423845","0.0-4.0-1.166","true"
"1892","ImagesTennis/TR100.png","188","test",".","image-keyboard-response","518","426243","0.0-4.0-1.167","false"
"970","ImagesTennis/TL102.5.png","188","test",",","image-keyboard-response","520","427719","0.0-4.0-1.168","true"
"680","ImagesDirect/VL92.5.png","190","test",".","image-keyboard-response","522","428903","0.0-4.0-1.169","true"
"427","ImagesSoccer/VL105.png","188","test",",","image-keyboard-response","524","429835","0.0-4.0-1.170","true"
"575","ImagesDirect/VL102.5.png","188","test",",","image-keyboard-response","526","430916","0.0-4.0-1.171","true"
"703","ImagesDirect/VR105.png","190","test",".","image-keyboard-response","528","432122","0.0-4.0-1.172","true"
"588","ImagesTennis/TR102.5.png","190","test",".","image-keyboard-response","530","433215","0.0-4.0-1.173","true"
"554","ImagesSoccer/VL97.5.png","188","test",".","image-keyboard-response","532","434271","0.0-4.0-1.174","false"
"539","ImagesDirect/VL105.png","188","test",",","image-keyboard-response","534","435312","0.0-4.0-1.175","true"
"618","ImagesDirect/VR95.png","190","test",",","image-keyboard-response","536","436436","0.0-4.0-1.176","false"
"558","ImagesTennis/TL90.png","188","test",".","image-keyboard-response","538","437499","0.0-4.0-1.177","false"
"578","ImagesDirect/VL97.5.png","188","test",".","image-keyboard-response","540","438583","0.0-4.0-1.178","false"
"733","ImagesDirect/VR110.png","190","test",".","image-keyboard-response","542","439818","0.0-4.0-1.179","true"
"506","ImagesDirect/VL100.png","188","test",".","image-keyboard-response","544","440827","0.0-4.0-1.180","false"
"394","ImagesTennis/TR110.png","190","test",".","image-keyboard-response","546","441727","0.0-4.0-1.181","true"
"610","ImagesTennis/TR107.5.png","190","test",".","image-keyboard-response","548","442843","0.0-4.0-1.182","true"
"954","ImagesTennis/TL92.5.png","190","test",".","image-keyboard-response","550","444300","0.0-4.0-1.183","true"
"599","ImagesTennis/TR92.5.png","188","test",",","image-keyboard-response","552","445401","0.0-4.0-1.184","true"
"1107","ImagesDirect/VR90.png","188","test",",","image-keyboard-response","554","447011","0.0-4.0-1.185","true"
"560","ImagesSoccer/VR110.png","190","test",".","image-keyboard-response","556","448073","0.0-4.0-1.186","true"
"1370","ImagesSoccer/VL95.png","188","test",".","image-keyboard-response","558","449945","0.0-4.0-1.187","false"
"934","ImagesDirect/VL90.png","190","test",".","image-keyboard-response","560","451383","0.0-4.0-1.188","true"
"740","ImagesTennis/TL107.5.png","188","test",",","image-keyboard-response","562","452627","0.0-4.0-1.189","true"
"379","ImagesDirect/VR100.png","188","test",".","image-keyboard-response","564","453512","0.0-4.0-1.190","false"
"806","ImagesSoccer/VL107.5.png","188","test",",","image-keyboard-response","566","454820","0.0-4.0-1.191","true"
"2280","ImagesSoccer/VL90.png","190","test",".","image-keyboard-response","568","457607","0.0-4.0-1.192","true"
"1760","ImagesDirect/VR102.5.png","190","test",".","image-keyboard-response","570","459869","0.0-4.0-1.193","true"
"618","ImagesSoccer/VR102.5.png","190","test",".","image-keyboard-response","572","460989","0.0-4.0-1.194","true"
"774","ImagesSoccer/VR92.5.png","188","test",",","image-keyboard-response","574","462270","0.0-4.0-1.195","true"
"820","ImagesDirect/VR92.5.png","188","test",",","image-keyboard-response","576","463593","0.0-4.0-1.196","true"
"1192","ImagesDirect/VR97.5.png","190","test",",","image-keyboard-response","578","465289","0.0-4.0-1.197","false"
"653","ImagesSoccer/VR100.png","190","test",".","image-keyboard-response","580","466447","0.0-4.0-1.198","true"
"475","ImagesDirect/VL110.png","188","test",",","image-keyboard-response","582","467425","0.0-4.0-1.199","true"
"759","ImagesTennis/TL100.png","190","test",".","image-keyboard-response","584","468688","0.0-4.0-1.200","true"
"556","ImagesTennis/TL95.png","190","test",".","image-keyboard-response","586","469750","0.0-4.0-1.201","true"
"518","ImagesSoccer/VR105.png","190","test",".","image-keyboard-response","588","470770","0.0-4.0-1.202","true"
"709","ImagesTennis/TR105.png","190","test",".","image-keyboard-response","590","471982","0.0-4.0-1.203","true"
"809","ImagesSoccer/VL92.5.png","188","test",".","image-keyboard-response","592","473296","0.0-4.0-1.204","false"
"580","ImagesDirect/VL95.png","188","test",".","image-keyboard-response","594","474379","0.0-4.0-1.205","false"
"424","ImagesSoccer/VR97.5.png","190","test",",","image-keyboard-response","596","475305","0.0-4.0-1.206","false"
"418","ImagesSoccer/VR90.png","190","test",",","image-keyboard-response","598","476230","0.0-4.0-1.207","false"
"498","ImagesSoccer/VL100.png","188","test",".","image-keyboard-response","600","477230","0.0-4.0-1.208","false"
"397","ImagesTennis/TL97.5.png","190","test",".","image-keyboard-response","602","478130","0.0-4.0-1.209","true"
"426","ImagesSoccer/VR107.5.png","190","test",".","image-keyboard-response","604","479058","0.0-4.0-1.210","true"
"416","ImagesSoccer/VL110.png","188","test",",","image-keyboard-response","606","479976","0.0-4.0-1.211","true"
"314","ImagesDirect/VR107.5.png","190","test",".","image-keyboard-response","608","480794","0.0-4.0-1.212","true"
"731","ImagesTennis/TR95.png","188","test",",","image-keyboard-response","610","482030","0.0-4.0-1.213","true"
"562","ImagesTennis/TL105.png","188","test",",","image-keyboard-response","612","483097","0.0-4.0-1.214","true"
"492","ImagesSoccer/VL102.5.png","188","test",",","image-keyboard-response","614","484094","0.0-4.0-1.215","true"
"542","ImagesSoccer/VR105.png","190","test",".","image-keyboard-response","616","485142","0.0-4.0-1.216","true"
"699","ImagesSoccer/VR92.5.png","188","test",",","image-keyboard-response","618","486348","0.0-4.0-1.217","true"
"518","ImagesSoccer/VL100.png","188","test",".","image-keyboard-response","620","487372","0.0-4.0-1.218","false"
"522","ImagesDirect/VL97.5.png","188","test",".","image-keyboard-response","622","488400","0.0-4.0-1.219","false"
"816","ImagesSoccer/VR100.png","190","test",".","image-keyboard-response","624","489719","0.0-4.0-1.220","true"
"503","ImagesTennis/TR95.png","188","test",",","image-keyboard-response","626","490725","0.0-4.0-1.221","true"
"855","ImagesTennis/TR105.png","190","test",".","image-keyboard-response","628","492082","0.0-4.0-1.222","true"
"508","ImagesDirect/VL105.png","188","test",",","image-keyboard-response","630","493094","0.0-4.0-1.223","true"
"582","ImagesTennis/TL107.5.png","188","test",",","image-keyboard-response","632","494180","0.0-4.0-1.224","true"
"729","ImagesSoccer/VL90.png","190","test",".","image-keyboard-response","634","495412","0.0-4.0-1.225","true"
"610","ImagesDirect/VR92.5.png","188","test",",","image-keyboard-response","636","496527","0.0-4.0-1.226","true"
"538","ImagesDirect/VR90.png","188","test",",","image-keyboard-response","638","497567","0.0-4.0-1.227","true"
"868","ImagesDirect/VL92.5.png","188","test",".","image-keyboard-response","640","498941","0.0-4.0-1.228","false"
"458","ImagesDirect/VL110.png","188","test",",","image-keyboard-response","642","499901","0.0-4.0-1.229","true"
"366","ImagesDirect/VR105.png","188","test",".","image-keyboard-response","644","500772","0.0-4.0-1.230","false"
"414","ImagesSoccer/VL92.5.png","188","test",".","image-keyboard-response","646","501691","0.0-4.0-1.231","false"
"104","ImagesTennis/TL110.png","188","test",",","image-keyboard-response","648","502300","0.0-4.0-1.232","true"
"688","ImagesTennis/TL102.5.png","188","test",",","image-keyboard-response","650","503493","0.0-4.0-1.233","true"
"718","ImagesDirect/VR102.5.png","190","test",".","image-keyboard-response","652","504717","0.0-4.0-1.234","true"
"342","ImagesSoccer/VR102.5.png","190","test",".","image-keyboard-response","654","505564","0.0-4.0-1.235","true"
"502","ImagesDirect/VR107.5.png","190","test",".","image-keyboard-response","656","506568","0.0-4.0-1.236","true"
"553","ImagesTennis/TR100.png","188","test",".","image-keyboard-response","658","507627","0.0-4.0-1.237","false"
"557","ImagesDirect/VR100.png","190","test",".","image-keyboard-response","660","508686","0.0-4.0-1.238","true"
"543","ImagesTennis/TL90.png","190","test",".","image-keyboard-response","662","509733","0.0-4.0-1.239","true"
"429","ImagesSoccer/VL107.5.png","188","test",",","image-keyboard-response","664","510668","0.0-4.0-1.240","true"
"474","ImagesTennis/TL105.png","188","test",",","image-keyboard-response","666","511648","0.0-4.0-1.241","true"
"847","ImagesDirect/VL90.png","188","test",".","image-keyboard-response","668","513001","0.0-4.0-1.242","false"
"460","ImagesDirect/VR110.png","190","test",".","image-keyboard-response","670","513964","0.0-4.0-1.243","true"
"667","ImagesDirect/VL102.5.png","188","test",",","image-keyboard-response","672","515137","0.0-4.0-1.244","true"
"588","ImagesTennis/TR90.png","190","test",",","image-keyboard-response","674","516229","0.0-4.0-1.245","false"
"613","ImagesTennis/TR102.5.png","190","test",".","image-keyboard-response","676","517345","0.0-4.0-1.246","true"
"733","ImagesDirect/VR97.5.png","190","test",",","image-keyboard-response","678","518580","0.0-4.0-1.247","false"
"597","ImagesTennis/TR110.png","190","test",".","image-keyboard-response","680","519681","0.0-4.0-1.248","true"
"555","ImagesSoccer/VR107.5.png","190","test",".","image-keyboard-response","682","520740","0.0-4.0-1.249","true"
"1727","ImagesSoccer/VR90.png","188","test",",","image-keyboard-response","684","522973","0.0-4.0-1.250","true"
"1615","ImagesTennis/TR97.5.png","188","test",",","image-keyboard-response","686","525093","0.0-4.0-1.251","true"
"464","ImagesSoccer/VR110.png","190","test",".","image-keyboard-response","688","526063","0.0-4.0-1.252","true"
"540","ImagesSoccer/VL105.png","188","test",",","image-keyboard-response","690","527111","0.0-4.0-1.253","true"
"789","ImagesTennis/TL95.png","190","test",".","image-keyboard-response","692","528406","0.0-4.0-1.254","true"
"652","ImagesTennis/TR107.5.png","190","test",".","image-keyboard-response","694","529562","0.0-4.0-1.255","true"
"765","ImagesSoccer/VL97.5.png","190","test",".","image-keyboard-response","696","530829","0.0-4.0-1.256","true"
"1039","ImagesDirect/VR95.png","188","test",",","image-keyboard-response","698","532373","0.0-4.0-1.257","true"
"718","ImagesTennis/TR92.5.png","188","test",",","image-keyboard-response","700","533598","0.0-4.0-1.258","true"
"654","ImagesDirect/VL107.5.png","188","test",",","image-keyboard-response","702","534758","0.0-4.0-1.259","true"
"685","ImagesSoccer/VL95.png","190","test",".","image-keyboard-response","704","535946","0.0-4.0-1.260","true"
"961","ImagesSoccer/VL102.5.png","188","test",",","image-keyboard-response","706","537410","0.0-4.0-1.261","true"
"676","ImagesDirect/VL95.png","190","test",".","image-keyboard-response","708","538592","0.0-4.0-1.262","true"
"1824","ImagesSoccer/VR95.png","190","test",",","image-keyboard-response","710","540921","0.0-4.0-1.263","false"
"835","ImagesTennis/TL92.5.png","190","test",".","image-keyboard-response","712","542263","0.0-4.0-1.264","true"
"811","ImagesTennis/TL100.png","188","test",".","image-keyboard-response","714","543578","0.0-4.0-1.265","false"
"810","ImagesDirect/VL100.png","188","test",".","image-keyboard-response","716","544894","0.0-4.0-1.266","false"
"643","ImagesSoccer/VL110.png","188","test",",","image-keyboard-response","718","546044","0.0-4.0-1.267","true"
"889","ImagesSoccer/VR97.5.png","188","test",",","image-keyboard-response","720","547438","0.0-4.0-1.268","true"
"1763","ImagesTennis/TL97.5.png","190","test",".","image-keyboard-response","722","549708","0.0-4.0-1.269","true"
