"rt","stimulus","key_press","test_part","correct_response","trial_type","trial_index","time_elapsed","internal_node_id","correct"
"1259","ImagesCoins/10L97.5.png","190","test",".","image-keyboard-response","4","14999","0.0-3.0-1.0","true"
"845","ImagesCoins/10L90.png","190","test",".","image-keyboard-response","6","16349","0.0-3.0-1.1","true"
"1296","ImagesCoins/10R100.png","190","test",".","image-keyboard-response","8","18168","0.0-3.0-1.2","true"
"783","ImagesCoins/10R105.png","190","test",".","image-keyboard-response","10","19465","0.0-3.0-1.3","true"
"779","ImagesCoins/10R110.png","190","test",".","image-keyboard-response","12","20767","0.0-3.0-1.4","true"
"840","ImagesCoins/10L105.png","188","test",",","image-keyboard-response","14","22132","0.0-3.0-1.5","true"
"988","ImagesCoins/10L107.5.png","188","test",",","image-keyboard-response","16","23649","0.0-3.0-1.6","true"
"1046","ImagesCoins/10R90.png","188","test",",","image-keyboard-response","18","25214","0.0-3.0-1.7","true"
"2705","ImagesCoins/10R95.png","190","test",",","image-keyboard-response","20","28434","0.0-3.0-1.8","false"
"857","ImagesCoins/10R102.5.png","190","test",".","image-keyboard-response","22","29807","0.0-3.0-1.9","true"
"720","ImagesCoins/10R107.5.png","190","test",".","image-keyboard-response","24","31045","0.0-3.0-1.10","true"
"715","ImagesCoins/10L102.5.png","188","test",",","image-keyboard-response","26","32289","0.0-3.0-1.11","true"
"3296","ImagesCoins/10R97.5.png","190","test",",","image-keyboard-response","28","36088","0.0-3.0-1.12","false"
"957","ImagesCoins/10R92.5.png","188","test",",","image-keyboard-response","30","37561","0.0-3.0-1.13","true"
"933","ImagesCoins/10L95.png","190","test",".","image-keyboard-response","32","39005","0.0-3.0-1.14","true"
"1179","ImagesCoins/10L100.png","190","test",".","image-keyboard-response","34","40689","0.0-3.0-1.15","true"
"961","ImagesCoins/10L92.5.png","190","test",".","image-keyboard-response","36","42158","0.0-3.0-1.16","true"
"1057","ImagesCoins/10L110.png","188","test",",","image-keyboard-response","38","43722","0.0-3.0-1.17","true"
"758","ImagesCoins/10R107.5.png","190","test",".","image-keyboard-response","40","45001","0.0-3.0-1.18","true"
"630","ImagesCoins/10R102.5.png","190","test",".","image-keyboard-response","42","46138","0.0-3.0-1.19","true"
"3407","ImagesCoins/10R90.png","188","test",",","image-keyboard-response","44","50056","0.0-3.0-1.20","true"
"2051","ImagesCoins/10L97.5.png","190","test",".","image-keyboard-response","46","52621","0.0-3.0-1.21","true"
"740","ImagesCoins/10L107.5.png","188","test",",","image-keyboard-response","48","53872","0.0-3.0-1.22","true"
"1719","ImagesCoins/10L105.png","188","test",",","image-keyboard-response","50","56101","0.0-3.0-1.23","true"
"685","ImagesCoins/10L92.5.png","190","test",".","image-keyboard-response","52","57316","0.0-3.0-1.24","true"
"2218","ImagesCoins/10L100.png","188","test",".","image-keyboard-response","54","60052","0.0-3.0-1.25","false"
"1547","ImagesCoins/10L102.5.png","188","test",",","image-keyboard-response","56","62115","0.0-3.0-1.26","true"
"645","ImagesCoins/10L90.png","190","test",".","image-keyboard-response","58","63278","0.0-3.0-1.27","true"
"1736","ImagesCoins/10R97.5.png","190","test",",","image-keyboard-response","60","65537","0.0-3.0-1.28","false"
"2402","ImagesCoins/10L95.png","190","test",".","image-keyboard-response","62","68453","0.0-3.0-1.29","true"
"1858","ImagesCoins/10R92.5.png","188","test",",","image-keyboard-response","64","70813","0.0-3.0-1.30","true"
"815","ImagesCoins/10L110.png","188","test",",","image-keyboard-response","66","72145","0.0-3.0-1.31","true"
"1044","ImagesCoins/10R100.png","190","test",".","image-keyboard-response","68","73703","0.0-3.0-1.32","true"
"693","ImagesCoins/10R105.png","190","test",".","image-keyboard-response","70","74898","0.0-3.0-1.33","true"
"713","ImagesCoins/10R110.png","190","test",".","image-keyboard-response","72","76150","0.0-3.0-1.34","true"
"39239","ImagesCoins/10R95.png","188","test",",","image-keyboard-response","74","115897","0.0-3.0-1.35","true"
"2812","ImagesCoins/10R90.png","190","test",",","image-keyboard-response","76","119249","0.0-3.0-1.36","false"
"757","ImagesCoins/10L90.png","190","test",".","image-keyboard-response","78","120526","0.0-3.0-1.37","true"
"1313","ImagesCoins/10L102.5.png","188","test",",","image-keyboard-response","80","122358","0.0-3.0-1.38","true"
"2708","ImagesCoins/10R92.5.png","188","test",",","image-keyboard-response","82","125579","0.0-3.0-1.39","true"
"1835","ImagesCoins/10R95.png","188","test",",","image-keyboard-response","84","127922","0.0-3.0-1.40","true"
"885","ImagesCoins/10L95.png","190","test",".","image-keyboard-response","86","129328","0.0-3.0-1.41","true"
"830","ImagesCoins/10R105.png","190","test",".","image-keyboard-response","88","130687","0.0-3.0-1.42","true"
"701","ImagesCoins/10R110.png","190","test",".","image-keyboard-response","90","131906","0.0-3.0-1.43","true"
"2362","ImagesCoins/10L97.5.png","190","test",".","image-keyboard-response","92","134783","0.0-3.0-1.44","true"
"1353","ImagesCoins/10R107.5.png","190","test",".","image-keyboard-response","94","136655","0.0-3.0-1.45","true"
"1579","ImagesCoins/10L100.png","190","test",".","image-keyboard-response","96","138743","0.0-3.0-1.46","true"
"1328","ImagesCoins/10R102.5.png","190","test",".","image-keyboard-response","98","140584","0.0-3.0-1.47","true"
"990","ImagesCoins/10L105.png","188","test",",","image-keyboard-response","100","142101","0.0-3.0-1.48","true"
"1587","ImagesCoins/10L107.5.png","188","test",",","image-keyboard-response","102","144205","0.0-3.0-1.49","true"
"2258","ImagesCoins/10R100.png","188","test",".","image-keyboard-response","104","146989","0.0-3.0-1.50","false"
"1972","ImagesCoins/10R97.5.png","190","test",",","image-keyboard-response","106","149472","0.0-3.0-1.51","false"
"791","ImagesCoins/10L92.5.png","190","test",".","image-keyboard-response","108","150788","0.0-3.0-1.52","true"
"702","ImagesCoins/10L110.png","188","test",",","image-keyboard-response","110","152006","0.0-3.0-1.53","true"
"644","ImagesCoins/10L102.5.png","188","test",",","image-keyboard-response","112","153171","0.0-3.0-1.54","true"
"533","ImagesCoins/10R107.5.png","190","test",".","image-keyboard-response","114","154219","0.0-3.0-1.55","true"
"706","ImagesCoins/10L100.png","188","test",".","image-keyboard-response","116","155435","0.0-3.0-1.56","false"
"644","ImagesCoins/10L90.png","190","test",".","image-keyboard-response","118","156588","0.0-3.0-1.57","true"
"559","ImagesCoins/10R110.png","190","test",".","image-keyboard-response","120","157673","0.0-3.0-1.58","true"
"1399","ImagesCoins/10R92.5.png","188","test",",","image-keyboard-response","122","159594","0.0-3.0-1.59","true"
"706","ImagesCoins/10L107.5.png","188","test",",","image-keyboard-response","124","160820","0.0-3.0-1.60","true"
"656","ImagesCoins/10R90.png","188","test",",","image-keyboard-response","126","162014","0.0-3.0-1.61","true"
"792","ImagesCoins/10L110.png","188","test",",","image-keyboard-response","128","163315","0.0-3.0-1.62","true"
"985","ImagesCoins/10R97.5.png","190","test",",","image-keyboard-response","130","164823","0.0-3.0-1.63","false"
"669","ImagesCoins/10R102.5.png","190","test",".","image-keyboard-response","132","166014","0.0-3.0-1.64","true"
"2305","ImagesCoins/10R95.png","190","test",",","image-keyboard-response","134","168839","0.0-3.0-1.65","false"
"753","ImagesCoins/10L97.5.png","188","test",".","image-keyboard-response","136","170122","0.0-3.0-1.66","false"
"709","ImagesCoins/10L105.png","188","test",",","image-keyboard-response","138","171357","0.0-3.0-1.67","true"
"547","ImagesCoins/10L92.5.png","190","test",".","image-keyboard-response","140","172424","0.0-3.0-1.68","true"
"1665","ImagesCoins/10L95.png","188","test",".","image-keyboard-response","142","174602","0.0-3.0-1.69","false"
"557","ImagesCoins/10R100.png","190","test",".","image-keyboard-response","144","175672","0.0-3.0-1.70","true"
"527","ImagesCoins/10R105.png","190","test",".","image-keyboard-response","146","176711","0.0-3.0-1.71","true"
"677","ImagesCoins/10L102.5.png","188","test",",","image-keyboard-response","148","177904","0.0-3.0-1.72","true"
"1485","ImagesCoins/10R90.png","188","test",",","image-keyboard-response","150","179904","0.0-3.0-1.73","true"
"707","ImagesCoins/10L95.png","190","test",".","image-keyboard-response","152","181124","0.0-3.0-1.74","true"
"618","ImagesCoins/10L97.5.png","190","test",".","image-keyboard-response","154","182247","0.0-3.0-1.75","true"
"669","ImagesCoins/10L100.png","190","test",".","image-keyboard-response","156","183430","0.0-3.0-1.76","true"
"1144","ImagesCoins/10L110.png","188","test",",","image-keyboard-response","158","185088","0.0-3.0-1.77","true"
"1078","ImagesCoins/10R92.5.png","190","test",",","image-keyboard-response","160","186683","0.0-3.0-1.78","false"
"712","ImagesCoins/10R102.5.png","190","test",".","image-keyboard-response","162","187902","0.0-3.0-1.79","true"
"1788","ImagesCoins/10L105.png","188","test",",","image-keyboard-response","164","190207","0.0-3.0-1.80","true"
"579","ImagesCoins/10R100.png","190","test",".","image-keyboard-response","166","191299","0.0-3.0-1.81","true"
"663","ImagesCoins/10R107.5.png","190","test",".","image-keyboard-response","168","192473","0.0-3.0-1.82","true"
"1273","ImagesCoins/10R95.png","190","test",",","image-keyboard-response","170","194275","0.0-3.0-1.83","false"
"672","ImagesCoins/10L92.5.png","190","test",".","image-keyboard-response","172","195467","0.0-3.0-1.84","true"
"604","ImagesCoins/10R105.png","190","test",".","image-keyboard-response","174","196590","0.0-3.0-1.85","true"
"571","ImagesCoins/10R110.png","190","test",".","image-keyboard-response","176","197684","0.0-3.0-1.86","true"
"650","ImagesCoins/10L107.5.png","188","test",",","image-keyboard-response","178","198842","0.0-3.0-1.87","true"
"721","ImagesCoins/10R97.5.png","190","test",",","image-keyboard-response","180","200080","0.0-3.0-1.88","false"
"596","ImagesCoins/10L90.png","190","test",".","image-keyboard-response","182","201195","0.0-3.0-1.89","true"
"5793","ImagesDirect/VR95.png","190","test",",","image-keyboard-response","184","207498","0.0-4.0-1.0","false"
"615","ImagesDirect/VR100.png","190","test",".","image-keyboard-response","186","208635","0.0-4.0-1.1","true"
"826","ImagesSoccer/VL107.5.png","188","test",",","image-keyboard-response","188","209977","0.0-4.0-1.2","true"
"2174","ImagesDirect/VL102.5.png","188","test",",","image-keyboard-response","190","212677","0.0-4.0-1.3","true"
"651","ImagesDirect/VR105.png","190","test",".","image-keyboard-response","192","213847","0.0-4.0-1.4","true"
"658","ImagesTennis/TL95.png","190","test",".","image-keyboard-response","194","215042","0.0-4.0-1.5","true"
"1969","ImagesSoccer/VL97.5.png","188","test",".","image-keyboard-response","196","217528","0.0-4.0-1.6","false"
"653","ImagesTennis/TR110.png","190","test",".","image-keyboard-response","198","218693","0.0-4.0-1.7","true"
"844","ImagesSoccer/VR95.png","188","test",",","image-keyboard-response","200","220057","0.0-4.0-1.8","true"
"1621","ImagesTennis/TL107.5.png","190","test",",","image-keyboard-response","202","222209","0.0-4.0-1.9","false"
"719","ImagesSoccer/VR92.5.png","188","test",",","image-keyboard-response","204","223450","0.0-4.0-1.10","true"
"831","ImagesDirect/VL105.png","188","test",",","image-keyboard-response","206","224797","0.0-4.0-1.11","true"
"961","ImagesTennis/TR92.5.png","188","test",",","image-keyboard-response","208","226271","0.0-4.0-1.12","true"
"674","ImagesSoccer/VR102.5.png","190","test",".","image-keyboard-response","210","227459","0.0-4.0-1.13","true"
"596","ImagesSoccer/VR110.png","190","test",".","image-keyboard-response","212","228568","0.0-4.0-1.14","true"
"2802","ImagesSoccer/VL92.5.png","188","test",".","image-keyboard-response","214","231879","0.0-4.0-1.15","false"
"723","ImagesTennis/TR90.png","188","test",",","image-keyboard-response","216","233113","0.0-4.0-1.16","true"
"673","ImagesDirect/VL110.png","188","test",",","image-keyboard-response","218","234304","0.0-4.0-1.17","true"
"656","ImagesDirect/VL95.png","190","test",".","image-keyboard-response","220","235501","0.0-4.0-1.18","true"
"638","ImagesTennis/TL90.png","190","test",".","image-keyboard-response","222","236657","0.0-4.0-1.19","true"
"1698","ImagesDirect/VL100.png","188","test",".","image-keyboard-response","224","238874","0.0-4.0-1.20","false"
"611","ImagesTennis/TL100.png","190","test",".","image-keyboard-response","226","239998","0.0-4.0-1.21","true"
"705","ImagesTennis/TR95.png","188","test",",","image-keyboard-response","228","241221","0.0-4.0-1.22","true"
"621","ImagesSoccer/VL90.png","190","test",".","image-keyboard-response","230","242365","0.0-4.0-1.23","true"
"2209","ImagesDirect/VL97.5.png","188","test",".","image-keyboard-response","232","245100","0.0-4.0-1.24","false"
"1394","ImagesDirect/VR92.5.png","188","test",",","image-keyboard-response","234","247000","0.0-4.0-1.25","true"
"1934","ImagesTennis/TR102.5.png","190","test",".","image-keyboard-response","236","249451","0.0-4.0-1.26","true"
"1463","ImagesTennis/TL102.5.png","190","test",",","image-keyboard-response","238","251425","0.0-4.0-1.27","false"
"769","ImagesSoccer/VR100.png","188","test",".","image-keyboard-response","240","252706","0.0-4.0-1.28","false"
"1322","ImagesSoccer/VR97.5.png","190","test",",","image-keyboard-response","242","254544","0.0-4.0-1.29","false"
"887","ImagesSoccer/VL110.png","188","test",",","image-keyboard-response","244","255943","0.0-4.0-1.30","true"
"1353","ImagesTennis/TR107.5.png","190","test",".","image-keyboard-response","246","257801","0.0-4.0-1.31","true"
"759","ImagesDirect/VL107.5.png","188","test",",","image-keyboard-response","248","259073","0.0-4.0-1.32","true"
"703","ImagesSoccer/VR105.png","190","test",".","image-keyboard-response","250","260288","0.0-4.0-1.33","true"
"1659","ImagesDirect/VL92.5.png","190","test",".","image-keyboard-response","252","262466","0.0-4.0-1.34","true"
"1732","ImagesSoccer/VL100.png","188","test",".","image-keyboard-response","254","264716","0.0-4.0-1.35","false"
"743","ImagesDirect/VR102.5.png","190","test",".","image-keyboard-response","256","265975","0.0-4.0-1.36","true"
"972","ImagesSoccer/VR107.5.png","190","test",".","image-keyboard-response","258","267475","0.0-4.0-1.37","true"
"636","ImagesSoccer/VL102.5.png","188","test",",","image-keyboard-response","260","268637","0.0-4.0-1.38","true"
"1067","ImagesTennis/TR97.5.png","188","test",",","image-keyboard-response","262","270224","0.0-4.0-1.39","true"
"729","ImagesSoccer/VL105.png","188","test",",","image-keyboard-response","264","271467","0.0-4.0-1.40","true"
"853","ImagesSoccer/VR90.png","188","test",",","image-keyboard-response","266","272835","0.0-4.0-1.41","true"
"716","ImagesDirect/VR110.png","190","test",".","image-keyboard-response","268","274061","0.0-4.0-1.42","true"
"2229","ImagesTennis/TL97.5.png","190","test",".","image-keyboard-response","270","276813","0.0-4.0-1.43","true"
"1154","ImagesTennis/TL110.png","188","test",",","image-keyboard-response","272","278486","0.0-4.0-1.44","true"
"1018","ImagesDirect/VR90.png","190","test",",","image-keyboard-response","274","280023","0.0-4.0-1.45","false"
"2526","ImagesSoccer/VL95.png","188","test",".","image-keyboard-response","276","283074","0.0-4.0-1.46","false"
"734","ImagesDirect/VR107.5.png","190","test",".","image-keyboard-response","278","284315","0.0-4.0-1.47","true"
"1336","ImagesTennis/TR100.png","188","test",".","image-keyboard-response","280","286173","0.0-4.0-1.48","false"
"2687","ImagesDirect/VR97.5.png","190","test",",","image-keyboard-response","282","289378","0.0-4.0-1.49","false"
"1343","ImagesTennis/TR105.png","190","test",".","image-keyboard-response","284","291240","0.0-4.0-1.50","true"
"1663","ImagesTennis/TL105.png","188","test",",","image-keyboard-response","286","293409","0.0-4.0-1.51","true"
"1232","ImagesTennis/TL92.5.png","190","test",".","image-keyboard-response","288","295147","0.0-4.0-1.52","true"
"1655","ImagesDirect/VL90.png","190","test",".","image-keyboard-response","290","297314","0.0-4.0-1.53","true"
"650","ImagesDirect/VL105.png","188","test",",","image-keyboard-response","292","298499","0.0-4.0-1.54","true"
"1497","ImagesSoccer/VR105.png","190","test",".","image-keyboard-response","294","300515","0.0-4.0-1.55","true"
"966","ImagesDirect/VR92.5.png","188","test",",","image-keyboard-response","296","301992","0.0-4.0-1.56","true"
"2888","ImagesTennis/TL102.5.png","188","test",",","image-keyboard-response","298","305404","0.0-4.0-1.57","true"
"1880","ImagesSoccer/VR97.5.png","188","test",",","image-keyboard-response","300","307800","0.0-4.0-1.58","true"
"871","ImagesSoccer/VL90.png","190","test",".","image-keyboard-response","302","309186","0.0-4.0-1.59","true"
"609","ImagesDirect/VR107.5.png","190","test",".","image-keyboard-response","304","310322","0.0-4.0-1.60","true"
"944","ImagesTennis/TL107.5.png","188","test",",","image-keyboard-response","306","311786","0.0-4.0-1.61","true"
"652","ImagesDirect/VR110.png","190","test",".","image-keyboard-response","308","312954","0.0-4.0-1.62","true"
"640","ImagesTennis/TR92.5.png","188","test",",","image-keyboard-response","310","314118","0.0-4.0-1.63","true"
"3934","ImagesDirect/VR97.5.png","190","test",",","image-keyboard-response","312","318579","0.0-4.0-1.64","false"
"772","ImagesSoccer/VR90.png","188","test",",","image-keyboard-response","314","319876","0.0-4.0-1.65","true"
"784","ImagesDirect/VL107.5.png","188","test",",","image-keyboard-response","316","321176","0.0-4.0-1.66","true"
"921","ImagesDirect/VR100.png","190","test",".","image-keyboard-response","318","322602","0.0-4.0-1.67","true"
"1591","ImagesDirect/VL97.5.png","190","test",".","image-keyboard-response","320","324707","0.0-4.0-1.68","true"
"1869","ImagesDirect/VR90.png","188","test",",","image-keyboard-response","322","327094","0.0-4.0-1.69","true"
"703","ImagesTennis/TL90.png","190","test",".","image-keyboard-response","324","328317","0.0-4.0-1.70","true"
"1376","ImagesTennis/TL97.5.png","190","test",".","image-keyboard-response","326","330208","0.0-4.0-1.71","true"
"736","ImagesDirect/VR102.5.png","190","test",".","image-keyboard-response","328","331471","0.0-4.0-1.72","true"
"1586","ImagesTennis/TR102.5.png","188","test",".","image-keyboard-response","330","333572","0.0-4.0-1.73","false"
"1334","ImagesTennis/TR100.png","190","test",".","image-keyboard-response","332","335432","0.0-4.0-1.74","true"
"680","ImagesTennis/TR110.png","190","test",".","image-keyboard-response","334","336631","0.0-4.0-1.75","true"
"1685","ImagesSoccer/VR95.png","188","test",",","image-keyboard-response","336","338837","0.0-4.0-1.76","true"
"1457","ImagesTennis/TR90.png","188","test",",","image-keyboard-response","338","340802","0.0-4.0-1.77","true"
"2539","ImagesDirect/VL100.png","188","test",".","image-keyboard-response","340","343865","0.0-4.0-1.78","false"
"3047","ImagesTennis/TL105.png","190","test",",","image-keyboard-response","342","347437","0.0-4.0-1.79","false"
"595","ImagesTennis/TL92.5.png","190","test",".","image-keyboard-response","344","348539","0.0-4.0-1.80","true"
"897","ImagesSoccer/VR102.5.png","190","test",".","image-keyboard-response","346","349951","0.0-4.0-1.81","true"
"2103","ImagesTennis/TL110.png","188","test",",","image-keyboard-response","348","352571","0.0-4.0-1.82","true"
"666","ImagesTennis/TL95.png","190","test",".","image-keyboard-response","350","353762","0.0-4.0-1.83","true"
"653","ImagesTennis/TR97.5.png","188","test",",","image-keyboard-response","352","354930","0.0-4.0-1.84","true"
"1467","ImagesTennis/TR105.png","190","test",".","image-keyboard-response","354","356914","0.0-4.0-1.85","true"
"816","ImagesTennis/TR95.png","188","test",",","image-keyboard-response","356","358244","0.0-4.0-1.86","true"
"624","ImagesSoccer/VL107.5.png","188","test",",","image-keyboard-response","358","359391","0.0-4.0-1.87","true"
"1193","ImagesSoccer/VL95.png","190","test",".","image-keyboard-response","360","361096","0.0-4.0-1.88","true"
"954","ImagesDirect/VL92.5.png","190","test",".","image-keyboard-response","362","362559","0.0-4.0-1.89","true"
"578","ImagesTennis/TR107.5.png","190","test",".","image-keyboard-response","364","363661","0.0-4.0-1.90","true"
"1027","ImagesSoccer/VR100.png","190","test",".","image-keyboard-response","366","365220","0.0-4.0-1.91","true"
"1261","ImagesSoccer/VL102.5.png","188","test",",","image-keyboard-response","368","366996","0.0-4.0-1.92","true"
"2730","ImagesDirect/VR95.png","188","test",",","image-keyboard-response","370","370243","0.0-4.0-1.93","true"
"2335","ImagesTennis/TL100.png","190","test",".","image-keyboard-response","372","373106","0.0-4.0-1.94","true"
"2663","ImagesDirect/VL90.png","190","test",".","image-keyboard-response","374","376289","0.0-4.0-1.95","true"
"727","ImagesSoccer/VL105.png","188","test",",","image-keyboard-response","376","377520","0.0-4.0-1.96","true"
"1105","ImagesSoccer/VL100.png","188","test",".","image-keyboard-response","378","379141","0.0-4.0-1.97","false"
"761","ImagesSoccer/VL92.5.png","190","test",".","image-keyboard-response","380","380430","0.0-4.0-1.98","true"
"813","ImagesSoccer/VR92.5.png","188","test",",","image-keyboard-response","382","381769","0.0-4.0-1.99","true"
"603","ImagesDirect/VR105.png","190","test",".","image-keyboard-response","384","382889","0.0-4.0-1.100","true"
"706","ImagesSoccer/VL110.png","188","test",",","image-keyboard-response","386","384106","0.0-4.0-1.101","true"
"1585","ImagesSoccer/VL97.5.png","188","test",".","image-keyboard-response","388","386222","0.0-4.0-1.102","false"
"659","ImagesDirect/VL102.5.png","188","test",",","image-keyboard-response","390","387411","0.0-4.0-1.103","true"
"558","ImagesSoccer/VR107.5.png","190","test",".","image-keyboard-response","392","388482","0.0-4.0-1.104","true"
"487","ImagesSoccer/VR110.png","190","test",".","image-keyboard-response","394","389492","0.0-4.0-1.105","true"
"643","ImagesDirect/VL110.png","188","test",",","image-keyboard-response","396","390646","0.0-4.0-1.106","true"
"1010","ImagesDirect/VL95.png","188","test",".","image-keyboard-response","398","392168","0.0-4.0-1.107","false"
"749","ImagesSoccer/VL92.5.png","188","test",".","image-keyboard-response","400","393454","0.0-4.0-1.108","false"
"678","ImagesDirect/VR100.png","190","test",".","image-keyboard-response","402","394647","0.0-4.0-1.109","true"
"1077","ImagesSoccer/VR100.png","190","test",".","image-keyboard-response","404","396249","0.0-4.0-1.110","true"
"693","ImagesTennis/TL97.5.png","188","test",".","image-keyboard-response","406","397470","0.0-4.0-1.111","false"
"1473","ImagesTennis/TL100.png","188","test",".","image-keyboard-response","408","399472","0.0-4.0-1.112","false"
"590","ImagesDirect/VL110.png","188","test",",","image-keyboard-response","410","400583","0.0-4.0-1.113","true"
"569","ImagesSoccer/VR102.5.png","190","test",".","image-keyboard-response","412","401662","0.0-4.0-1.114","true"
"581","ImagesTennis/TR95.png","188","test",",","image-keyboard-response","414","402763","0.0-4.0-1.115","true"
"661","ImagesTennis/TL107.5.png","190","test",",","image-keyboard-response","416","403945","0.0-4.0-1.116","false"
"814","ImagesDirect/VL107.5.png","188","test",",","image-keyboard-response","418","405276","0.0-4.0-1.117","true"
"1076","ImagesDirect/VL95.png","190","test",".","image-keyboard-response","420","406873","0.0-4.0-1.118","true"
"2370","ImagesDirect/VR102.5.png","190","test",".","image-keyboard-response","422","409761","0.0-4.0-1.119","true"
"980","ImagesTennis/TL95.png","188","test",".","image-keyboard-response","424","411250","0.0-4.0-1.120","false"
"2079","ImagesTennis/TL102.5.png","188","test",",","image-keyboard-response","426","413849","0.0-4.0-1.121","true"
"812","ImagesTennis/TR110.png","190","test",".","image-keyboard-response","428","415179","0.0-4.0-1.122","true"
"701","ImagesTennis/TR92.5.png","188","test",",","image-keyboard-response","430","416395","0.0-4.0-1.123","true"
"2979","ImagesTennis/TL110.png","188","test",",","image-keyboard-response","432","419885","0.0-4.0-1.124","true"
"1029","ImagesTennis/TL90.png","190","test",".","image-keyboard-response","434","421436","0.0-4.0-1.125","true"
"1330","ImagesDirect/VL92.5.png","190","test",".","image-keyboard-response","436","423281","0.0-4.0-1.126","true"
"1289","ImagesDirect/VR92.5.png","190","test",",","image-keyboard-response","438","425079","0.0-4.0-1.127","false"
"824","ImagesTennis/TR105.png","190","test",".","image-keyboard-response","440","426421","0.0-4.0-1.128","true"
"4081","ImagesDirect/VR97.5.png","190","test",",","image-keyboard-response","442","431016","0.0-4.0-1.129","false"
"2198","ImagesDirect/VR95.png","190","test",",","image-keyboard-response","444","433736","0.0-4.0-1.130","false"
"1985","ImagesSoccer/VL97.5.png","188","test",".","image-keyboard-response","446","436253","0.0-4.0-1.131","false"
"1178","ImagesDirect/VL90.png","188","test",".","image-keyboard-response","448","437944","0.0-4.0-1.132","false"
"673","ImagesDirect/VL100.png","188","test",".","image-keyboard-response","450","439131","0.0-4.0-1.133","false"
"661","ImagesSoccer/VL110.png","188","test",",","image-keyboard-response","452","440306","0.0-4.0-1.134","true"
"2778","ImagesTennis/TR100.png","190","test",".","image-keyboard-response","454","443603","0.0-4.0-1.135","true"
"1136","ImagesDirect/VL102.5.png","188","test",",","image-keyboard-response","456","445256","0.0-4.0-1.136","true"
"825","ImagesSoccer/VR92.5.png","188","test",",","image-keyboard-response","458","446603","0.0-4.0-1.137","true"
"3851","ImagesDirect/VL97.5.png","188","test",".","image-keyboard-response","460","450960","0.0-4.0-1.138","false"
"1211","ImagesTennis/TR90.png","188","test",",","image-keyboard-response","462","452694","0.0-4.0-1.139","true"
"1188","ImagesSoccer/VL95.png","190","test",".","image-keyboard-response","464","454388","0.0-4.0-1.140","true"
"2070","ImagesTennis/TR102.5.png","188","test",".","image-keyboard-response","466","456976","0.0-4.0-1.141","false"
"1504","ImagesSoccer/VL100.png","188","test",".","image-keyboard-response","468","458999","0.0-4.0-1.142","false"
"719","ImagesSoccer/VL102.5.png","188","test",",","image-keyboard-response","470","460234","0.0-4.0-1.143","true"
"567","ImagesSoccer/VL107.5.png","188","test",",","image-keyboard-response","472","461324","0.0-4.0-1.144","true"
"1574","ImagesSoccer/VR90.png","188","test",",","image-keyboard-response","474","463431","0.0-4.0-1.145","true"
"600","ImagesDirect/VR107.5.png","190","test",".","image-keyboard-response","476","464547","0.0-4.0-1.146","true"
"859","ImagesDirect/VR90.png","188","test",",","image-keyboard-response","478","465930","0.0-4.0-1.147","true"
"865","ImagesTennis/TR97.5.png","188","test",",","image-keyboard-response","480","467308","0.0-4.0-1.148","true"
"651","ImagesDirect/VR110.png","190","test",".","image-keyboard-response","482","468478","0.0-4.0-1.149","true"
"2312","ImagesSoccer/VR97.5.png","190","test",",","image-keyboard-response","484","471317","0.0-4.0-1.150","false"
"802","ImagesSoccer/VR110.png","190","test",".","image-keyboard-response","486","472629","0.0-4.0-1.151","true"
"845","ImagesSoccer/VL90.png","188","test",".","image-keyboard-response","488","473987","0.0-4.0-1.152","false"
"974","ImagesDirect/VL105.png","188","test",",","image-keyboard-response","490","475483","0.0-4.0-1.153","true"
"1642","ImagesTennis/TR107.5.png","190","test",".","image-keyboard-response","492","477643","0.0-4.0-1.154","true"
"1687","ImagesSoccer/VR95.png","188","test",",","image-keyboard-response","494","479846","0.0-4.0-1.155","true"
"912","ImagesSoccer/VL105.png","188","test",",","image-keyboard-response","496","481269","0.0-4.0-1.156","true"
"1033","ImagesTennis/TL105.png","188","test",",","image-keyboard-response","498","482806","0.0-4.0-1.157","true"
"683","ImagesTennis/TL92.5.png","190","test",".","image-keyboard-response","500","483998","0.0-4.0-1.158","true"
"1080","ImagesSoccer/VR107.5.png","190","test",".","image-keyboard-response","502","485595","0.0-4.0-1.159","true"
"556","ImagesDirect/VR105.png","190","test",".","image-keyboard-response","504","486665","0.0-4.0-1.160","true"
"952","ImagesSoccer/VR105.png","190","test",".","image-keyboard-response","506","488133","0.0-4.0-1.161","true"
"765","ImagesSoccer/VL110.png","188","test",",","image-keyboard-response","508","489416","0.0-4.0-1.162","true"
"2363","ImagesSoccer/VL97.5.png","190","test",".","image-keyboard-response","510","492293","0.0-4.0-1.163","true"
"2204","ImagesDirect/VL107.5.png","188","test",",","image-keyboard-response","512","495037","0.0-4.0-1.164","true"
"1461","ImagesDirect/VL97.5.png","190","test",".","image-keyboard-response","514","497012","0.0-4.0-1.165","true"
"1834","ImagesSoccer/VL92.5.png","188","test",".","image-keyboard-response","516","499367","0.0-4.0-1.166","false"
"2215","ImagesTennis/TL102.5.png","190","test",",","image-keyboard-response","518","502103","0.0-4.0-1.167","false"
"1452","ImagesSoccer/VL90.png","188","test",".","image-keyboard-response","520","504068","0.0-4.0-1.168","false"
"1114","ImagesTennis/TR105.png","190","test",".","image-keyboard-response","522","505697","0.0-4.0-1.169","true"
"1485","ImagesTennis/TR102.5.png","190","test",".","image-keyboard-response","524","507698","0.0-4.0-1.170","true"
"765","ImagesTennis/TR92.5.png","188","test",",","image-keyboard-response","526","508981","0.0-4.0-1.171","true"
"2593","ImagesDirect/VR100.png","190","test",".","image-keyboard-response","528","512089","0.0-4.0-1.172","true"
"637","ImagesTennis/TL92.5.png","190","test",".","image-keyboard-response","530","513242","0.0-4.0-1.173","true"
"1235","ImagesDirect/VR92.5.png","188","test",",","image-keyboard-response","532","515002","0.0-4.0-1.174","true"
"1931","ImagesDirect/VL92.5.png","190","test",".","image-keyboard-response","534","517453","0.0-4.0-1.175","true"
"2271","ImagesTennis/TL105.png","188","test",",","image-keyboard-response","536","520231","0.0-4.0-1.176","true"
"3727","ImagesDirect/VR97.5.png","190","test",",","image-keyboard-response","538","524477","0.0-4.0-1.177","false"
"852","ImagesSoccer/VR90.png","188","test",",","image-keyboard-response","540","525843","0.0-4.0-1.178","true"
"942","ImagesSoccer/VR97.5.png","188","test",",","image-keyboard-response","542","527301","0.0-4.0-1.179","true"
"701","ImagesDirect/VL110.png","188","test",",","image-keyboard-response","544","528516","0.0-4.0-1.180","true"
"1738","ImagesSoccer/VR102.5.png","190","test",".","image-keyboard-response","546","530773","0.0-4.0-1.181","true"
"827","ImagesTennis/TR95.png","188","test",",","image-keyboard-response","548","532127","0.0-4.0-1.182","true"
"1547","ImagesTennis/TR107.5.png","190","test",".","image-keyboard-response","550","534196","0.0-4.0-1.183","true"
"1327","ImagesTennis/TL110.png","188","test",",","image-keyboard-response","552","536030","0.0-4.0-1.184","true"
"1839","ImagesDirect/VL95.png","190","test",".","image-keyboard-response","554","538386","0.0-4.0-1.185","true"
"1205","ImagesTennis/TR100.png","188","test",".","image-keyboard-response","556","540100","0.0-4.0-1.186","false"
"666","ImagesSoccer/VL105.png","188","test",",","image-keyboard-response","558","541280","0.0-4.0-1.187","true"
"746","ImagesTennis/TL97.5.png","190","test",".","image-keyboard-response","560","542549","0.0-4.0-1.188","true"
"745","ImagesTennis/TL95.png","190","test",".","image-keyboard-response","562","543812","0.0-4.0-1.189","true"
"944","ImagesSoccer/VR92.5.png","188","test",",","image-keyboard-response","564","545283","0.0-4.0-1.190","true"
"2264","ImagesSoccer/VL95.png","190","test",".","image-keyboard-response","566","548071","0.0-4.0-1.191","true"
"625","ImagesSoccer/VR107.5.png","190","test",".","image-keyboard-response","568","549213","0.0-4.0-1.192","true"
"806","ImagesSoccer/VR100.png","188","test",".","image-keyboard-response","570","550545","0.0-4.0-1.193","false"
"604","ImagesDirect/VL105.png","188","test",",","image-keyboard-response","572","551655","0.0-4.0-1.194","true"
"669","ImagesDirect/VL102.5.png","188","test",",","image-keyboard-response","574","552843","0.0-4.0-1.195","true"
"1588","ImagesSoccer/VR105.png","190","test",".","image-keyboard-response","576","554958","0.0-4.0-1.196","true"
"588","ImagesDirect/VR105.png","190","test",".","image-keyboard-response","578","556066","0.0-4.0-1.197","true"
"727","ImagesSoccer/VL102.5.png","188","test",",","image-keyboard-response","580","557314","0.0-4.0-1.198","true"
"776","ImagesDirect/VR102.5.png","190","test",".","image-keyboard-response","582","558620","0.0-4.0-1.199","true"
"703","ImagesSoccer/VR95.png","188","test",",","image-keyboard-response","584","559846","0.0-4.0-1.200","true"
"588","ImagesSoccer/VR110.png","190","test",".","image-keyboard-response","586","560947","0.0-4.0-1.201","true"
"573","ImagesSoccer/VL100.png","188","test",".","image-keyboard-response","588","562037","0.0-4.0-1.202","false"
"672","ImagesSoccer/VL107.5.png","188","test",",","image-keyboard-response","590","563242","0.0-4.0-1.203","true"
"537","ImagesTennis/TL90.png","190","test",".","image-keyboard-response","592","564299","0.0-4.0-1.204","true"
"462","ImagesDirect/VR110.png","190","test",".","image-keyboard-response","594","565272","0.0-4.0-1.205","true"
"556","ImagesTennis/TR90.png","188","test",",","image-keyboard-response","596","566348","0.0-4.0-1.206","true"
"1741","ImagesDirect/VR95.png","188","test",",","image-keyboard-response","598","568616","0.0-4.0-1.207","true"
"954","ImagesDirect/VR90.png","188","test",",","image-keyboard-response","600","570081","0.0-4.0-1.208","true"
"900","ImagesDirect/VL90.png","190","test",".","image-keyboard-response","602","571497","0.0-4.0-1.209","true"
"1940","ImagesDirect/VL100.png","190","test",".","image-keyboard-response","604","573955","0.0-4.0-1.210","true"
"972","ImagesDirect/VR107.5.png","190","test",".","image-keyboard-response","606","575450","0.0-4.0-1.211","true"
"652","ImagesTennis/TL100.png","190","test",".","image-keyboard-response","608","576624","0.0-4.0-1.212","true"
"657","ImagesTennis/TR97.5.png","188","test",",","image-keyboard-response","610","577794","0.0-4.0-1.213","true"
"698","ImagesTennis/TR110.png","190","test",".","image-keyboard-response","612","579010","0.0-4.0-1.214","true"
"747","ImagesTennis/TL107.5.png","190","test",",","image-keyboard-response","614","580272","0.0-4.0-1.215","false"
"1701","ImagesDirect/VL102.5.png","188","test",",","image-keyboard-response","616","582489","0.0-4.0-1.216","true"
"774","ImagesDirect/VR97.5.png","190","test",",","image-keyboard-response","618","583781","0.0-4.0-1.217","false"
"665","ImagesTennis/TL90.png","190","test",".","image-keyboard-response","620","584967","0.0-4.0-1.218","true"
"468","ImagesTennis/TL102.5.png","190","test",",","image-keyboard-response","622","585946","0.0-4.0-1.219","false"
"1148","ImagesDirect/VL90.png","190","test",".","image-keyboard-response","624","587612","0.0-4.0-1.220","true"
"1147","ImagesTennis/TR110.png","190","test",".","image-keyboard-response","626","589272","0.0-4.0-1.221","true"
"727","ImagesDirect/VL110.png","188","test",",","image-keyboard-response","628","590516","0.0-4.0-1.222","true"
"629","ImagesDirect/VR92.5.png","190","test",",","image-keyboard-response","630","591649","0.0-4.0-1.223","false"
"709","ImagesSoccer/VR110.png","190","test",".","image-keyboard-response","632","592892","0.0-4.0-1.224","true"
"1274","ImagesSoccer/VR92.5.png","190","test",",","image-keyboard-response","634","594687","0.0-4.0-1.225","false"
"789","ImagesSoccer/VR90.png","188","test",",","image-keyboard-response","636","595988","0.0-4.0-1.226","true"
"1663","ImagesDirect/VL95.png","190","test",".","image-keyboard-response","638","598161","0.0-4.0-1.227","true"
"783","ImagesTennis/TR95.png","188","test",",","image-keyboard-response","640","599464","0.0-4.0-1.228","true"
"1754","ImagesTennis/TL105.png","188","test",",","image-keyboard-response","642","601726","0.0-4.0-1.229","true"
"1072","ImagesSoccer/VR97.5.png","190","test",",","image-keyboard-response","644","603317","0.0-4.0-1.230","false"
"797","ImagesDirect/VL100.png","188","test",".","image-keyboard-response","646","604636","0.0-4.0-1.231","false"
"940","ImagesSoccer/VR95.png","190","test",",","image-keyboard-response","648","606093","0.0-4.0-1.232","false"
"649","ImagesSoccer/VL110.png","188","test",",","image-keyboard-response","650","607262","0.0-4.0-1.233","true"
"511","ImagesDirect/VR110.png","190","test",".","image-keyboard-response","652","608291","0.0-4.0-1.234","true"
"696","ImagesTennis/TL100.png","190","test",".","image-keyboard-response","654","609513","0.0-4.0-1.235","true"
"1675","ImagesDirect/VR95.png","190","test",",","image-keyboard-response","656","611695","0.0-4.0-1.236","false"
"1161","ImagesSoccer/VL97.5.png","190","test",".","image-keyboard-response","658","613367","0.0-4.0-1.237","true"
"794","ImagesTennis/TR100.png","188","test",".","image-keyboard-response","660","614687","0.0-4.0-1.238","false"
"1459","ImagesSoccer/VL95.png","188","test",".","image-keyboard-response","662","616665","0.0-4.0-1.239","false"
"732","ImagesDirect/VL107.5.png","188","test",",","image-keyboard-response","664","617917","0.0-4.0-1.240","true"
"1271","ImagesSoccer/VL102.5.png","188","test",",","image-keyboard-response","666","619722","0.0-4.0-1.241","true"
"1090","ImagesTennis/TR102.5.png","190","test",".","image-keyboard-response","668","621321","0.0-4.0-1.242","true"
"917","ImagesSoccer/VR102.5.png","190","test",".","image-keyboard-response","670","622753","0.0-4.0-1.243","true"
"1409","ImagesSoccer/VL92.5.png","190","test",".","image-keyboard-response","672","624684","0.0-4.0-1.244","true"
"1178","ImagesTennis/TL97.5.png","190","test",".","image-keyboard-response","674","626381","0.0-4.0-1.245","true"
"1189","ImagesDirect/VR100.png","190","test",".","image-keyboard-response","676","628100","0.0-4.0-1.246","true"
"594","ImagesTennis/TL95.png","190","test",".","image-keyboard-response","678","629227","0.0-4.0-1.247","true"
"819","ImagesTennis/TL110.png","188","test",",","image-keyboard-response","680","630564","0.0-4.0-1.248","true"
"1105","ImagesTennis/TR90.png","188","test",",","image-keyboard-response","682","632182","0.0-4.0-1.249","true"
"737","ImagesDirect/VR105.png","190","test",".","image-keyboard-response","684","633438","0.0-4.0-1.250","true"
"1184","ImagesSoccer/VL90.png","190","test",".","image-keyboard-response","686","635136","0.0-4.0-1.251","true"
"697","ImagesSoccer/VL107.5.png","188","test",",","image-keyboard-response","688","636364","0.0-4.0-1.252","true"
"1217","ImagesTennis/TR97.5.png","188","test",",","image-keyboard-response","690","638103","0.0-4.0-1.253","true"
"1134","ImagesTennis/TL107.5.png","188","test",",","image-keyboard-response","692","639750","0.0-4.0-1.254","true"
"1003","ImagesTennis/TR105.png","190","test",".","image-keyboard-response","694","641273","0.0-4.0-1.255","true"
"1841","ImagesSoccer/VL100.png","188","test",".","image-keyboard-response","696","643629","0.0-4.0-1.256","false"
"676","ImagesTennis/TR92.5.png","188","test",",","image-keyboard-response","698","644822","0.0-4.0-1.257","true"
"701","ImagesTennis/TR107.5.png","190","test",".","image-keyboard-response","700","646044","0.0-4.0-1.258","true"
"863","ImagesDirect/VR90.png","188","test",",","image-keyboard-response","702","647417","0.0-4.0-1.259","true"
"657","ImagesDirect/VR102.5.png","190","test",".","image-keyboard-response","704","648605","0.0-4.0-1.260","true"
"629","ImagesSoccer/VL105.png","188","test",",","image-keyboard-response","706","649748","0.0-4.0-1.261","true"
"653","ImagesSoccer/VR107.5.png","190","test",".","image-keyboard-response","708","650919","0.0-4.0-1.262","true"
"987","ImagesSoccer/VR100.png","190","test",".","image-keyboard-response","710","652422","0.0-4.0-1.263","true"
"592","ImagesDirect/VR107.5.png","190","test",".","image-keyboard-response","712","653536","0.0-4.0-1.264","true"
"555","ImagesDirect/VL97.5.png","188","test",".","image-keyboard-response","714","654610","0.0-4.0-1.265","false"
"1137","ImagesDirect/VL92.5.png","190","test",".","image-keyboard-response","716","656259","0.0-4.0-1.266","true"
"710","ImagesDirect/VL105.png","188","test",",","image-keyboard-response","718","657488","0.0-4.0-1.267","true"
"579","ImagesSoccer/VR105.png","190","test",".","image-keyboard-response","720","658590","0.0-4.0-1.268","true"
"490","ImagesTennis/TL92.5.png","190","test",".","image-keyboard-response","722","659611","0.0-4.0-1.269","true"
