"rt","stimulus","key_press","test_part","correct_response","trial_type","trial_index","time_elapsed","internal_node_id","correct"
"1647","ImagesTennis/TR107.5.png","188","test",".","image-keyboard-response","4","15736","0.0-3.0-1.0","false"
"1291","ImagesSoccer/VL100.png","190","test",".","image-keyboard-response","6","17530","0.0-3.0-1.1","true"
"868","ImagesTennis/TL105.png","188","test",",","image-keyboard-response","8","18901","0.0-3.0-1.2","true"
"952","ImagesDirect/VL102.5.png","188","test",",","image-keyboard-response","10","20357","0.0-3.0-1.3","true"
"1796","ImagesSoccer/VR95.png","188","test",",","image-keyboard-response","12","22656","0.0-3.0-1.4","true"
"1325","ImagesDirect/VL105.png","188","test",",","image-keyboard-response","14","24485","0.0-3.0-1.5","true"
"912","ImagesTennis/TL95.png","190","test",".","image-keyboard-response","16","25899","0.0-3.0-1.6","true"
"1376","ImagesTennis/TL102.5.png","188","test",",","image-keyboard-response","18","27779","0.0-3.0-1.7","true"
"1147","ImagesSoccer/VL105.png","188","test",",","image-keyboard-response","20","29429","0.0-3.0-1.8","true"
"1013","ImagesSoccer/VR100.png","190","test",".","image-keyboard-response","22","30945","0.0-3.0-1.9","true"
"973","ImagesDirect/VR100.png","190","test",".","image-keyboard-response","24","32421","0.0-3.0-1.10","true"
"1135","ImagesDirect/VL100.png","190","test",".","image-keyboard-response","26","34060","0.0-3.0-1.11","true"
"3229","ImagesDirect/VR95.png","188","test",",","image-keyboard-response","28","37792","0.0-3.0-1.12","true"
"5743","ImagesSoccer/VR102.5.png","190","test",".","image-keyboard-response","30","44038","0.0-3.0-1.13","true"
"3605","ImagesTennis/TR97.5.png","188","test",",","image-keyboard-response","32","48146","0.0-3.0-1.14","true"
"1000","ImagesSoccer/VL92.5.png","190","test",".","image-keyboard-response","34","49649","0.0-3.0-1.15","true"
"1089","ImagesTennis/TR110.png","190","test",".","image-keyboard-response","36","51241","0.0-3.0-1.16","true"
"1502","ImagesSoccer/VR97.5.png","188","test",",","image-keyboard-response","38","53246","0.0-3.0-1.17","true"
"1133","ImagesTennis/TR95.png","188","test",",","image-keyboard-response","40","54882","0.0-3.0-1.18","true"
"1218","ImagesDirect/VR92.5.png","188","test",",","image-keyboard-response","42","56604","0.0-3.0-1.19","true"
"1012","ImagesSoccer/VL90.png","190","test",".","image-keyboard-response","44","58119","0.0-3.0-1.20","true"
"893","ImagesTennis/TL92.5.png","190","test",".","image-keyboard-response","46","59516","0.0-3.0-1.21","true"
"1062","ImagesSoccer/VR92.5.png","188","test",",","image-keyboard-response","48","61081","0.0-3.0-1.22","true"
"833","ImagesSoccer/VL95.png","190","test",".","image-keyboard-response","50","62417","0.0-3.0-1.23","true"
"1332","ImagesTennis/TR102.5.png","188","test",".","image-keyboard-response","52","64252","0.0-3.0-1.24","false"
"1043","ImagesDirect/VR102.5.png","190","test",".","image-keyboard-response","54","65798","0.0-3.0-1.25","true"
"1098","ImagesDirect/VL90.png","190","test",".","image-keyboard-response","56","67399","0.0-3.0-1.26","true"
"705","ImagesTennis/TR90.png","188","test",",","image-keyboard-response","58","68607","0.0-3.0-1.27","true"
"1046","ImagesSoccer/VR90.png","188","test",",","image-keyboard-response","60","70156","0.0-3.0-1.28","true"
"961","ImagesDirect/VL97.5.png","188","test",".","image-keyboard-response","62","71620","0.0-3.0-1.29","false"
"881","ImagesTennis/TR92.5.png","188","test",",","image-keyboard-response","64","73004","0.0-3.0-1.30","true"
"613","ImagesTennis/TL90.png","190","test",".","image-keyboard-response","66","74120","0.0-3.0-1.31","true"
"657","ImagesSoccer/VR105.png","190","test",".","image-keyboard-response","68","75280","0.0-3.0-1.32","true"
"5021","ImagesDirect/VL95.png","188","test",".","image-keyboard-response","70","80804","0.0-3.0-1.33","false"
"672","ImagesSoccer/VL107.5.png","188","test",",","image-keyboard-response","72","81979","0.0-3.0-1.34","true"
"637","ImagesDirect/VR105.png","190","test",".","image-keyboard-response","74","83120","0.0-3.0-1.35","true"
"871","ImagesTennis/TL97.5.png","188","test",".","image-keyboard-response","76","84494","0.0-3.0-1.36","false"
"523","ImagesSoccer/VR110.png","190","test",".","image-keyboard-response","78","85520","0.0-3.0-1.37","true"
"633","ImagesTennis/TL107.5.png","188","test",",","image-keyboard-response","80","86657","0.0-3.0-1.38","true"
"585","ImagesSoccer/VL97.5.png","190","test",".","image-keyboard-response","82","87744","0.0-3.0-1.39","true"
"711","ImagesDirect/VL92.5.png","190","test",".","image-keyboard-response","84","88959","0.0-3.0-1.40","true"
"625","ImagesTennis/TR100.png","190","test",".","image-keyboard-response","86","90087","0.0-3.0-1.41","true"
"831","ImagesSoccer/VL110.png","188","test",",","image-keyboard-response","88","91421","0.0-3.0-1.42","true"
"772","ImagesDirect/VR90.png","190","test",",","image-keyboard-response","90","92696","0.0-3.0-1.43","false"
"729","ImagesDirect/VR110.png","190","test",".","image-keyboard-response","92","93929","0.0-3.0-1.44","true"
"1212","ImagesTennis/TL110.png","188","test",",","image-keyboard-response","94","95644","0.0-3.0-1.45","true"
"1519","ImagesSoccer/VL102.5.png","188","test",",","image-keyboard-response","96","97666","0.0-3.0-1.46","true"
"1028","ImagesTennis/TR105.png","188","test",".","image-keyboard-response","98","99198","0.0-3.0-1.47","false"
"692","ImagesDirect/VL107.5.png","188","test",",","image-keyboard-response","100","100393","0.0-3.0-1.48","true"
"555","ImagesDirect/VR97.5.png","190","test",",","image-keyboard-response","102","101450","0.0-3.0-1.49","false"
"502","ImagesDirect/VL110.png","188","test",",","image-keyboard-response","104","102455","0.0-3.0-1.50","true"
"722","ImagesSoccer/VR107.5.png","190","test",".","image-keyboard-response","106","103681","0.0-3.0-1.51","true"
"789","ImagesTennis/TL100.png","188","test",".","image-keyboard-response","108","104973","0.0-3.0-1.52","false"
"1021","ImagesDirect/VR107.5.png","190","test",".","image-keyboard-response","110","106497","0.0-3.0-1.53","true"
"589","ImagesSoccer/VL107.5.png","188","test",",","image-keyboard-response","112","107589","0.0-3.0-1.54","true"
"324","ImagesTennis/TR92.5.png","188","test",",","image-keyboard-response","114","108417","0.0-3.0-1.55","true"
"1040","ImagesSoccer/VL110.png","190","test",",","image-keyboard-response","116","109961","0.0-3.0-1.56","false"
"726","ImagesDirect/VR100.png","190","test",".","image-keyboard-response","118","111190","0.0-3.0-1.57","true"
"1042","ImagesSoccer/VR95.png","188","test",",","image-keyboard-response","120","112735","0.0-3.0-1.58","true"
"965","ImagesTennis/TL102.5.png","188","test",",","image-keyboard-response","122","114203","0.0-3.0-1.59","true"
"879","ImagesTennis/TR95.png","188","test",",","image-keyboard-response","124","115585","0.0-3.0-1.60","true"
"627","ImagesDirect/VR97.5.png","190","test",",","image-keyboard-response","126","116715","0.0-3.0-1.61","false"
"1139","ImagesTennis/TR110.png","190","test",".","image-keyboard-response","128","118357","0.0-3.0-1.62","true"
"1453","ImagesTennis/TL90.png","190","test",".","image-keyboard-response","130","120314","0.0-3.0-1.63","true"
"1146","ImagesTennis/TL100.png","188","test",".","image-keyboard-response","132","121962","0.0-3.0-1.64","false"
"2083","ImagesTennis/TL105.png","188","test",",","image-keyboard-response","134","124548","0.0-3.0-1.65","true"
"548","ImagesSoccer/VR107.5.png","190","test",".","image-keyboard-response","136","125599","0.0-3.0-1.66","true"
"775","ImagesTennis/TL97.5.png","188","test",".","image-keyboard-response","138","126878","0.0-3.0-1.67","false"
"876","ImagesDirect/VR92.5.png","188","test",",","image-keyboard-response","140","128257","0.0-3.0-1.68","true"
"535","ImagesSoccer/VL105.png","188","test",",","image-keyboard-response","142","129295","0.0-3.0-1.69","true"
"718","ImagesDirect/VL107.5.png","188","test",",","image-keyboard-response","144","130516","0.0-3.0-1.70","true"
"600","ImagesDirect/VR105.png","190","test",".","image-keyboard-response","146","131620","0.0-3.0-1.71","true"
"1511","ImagesDirect/VL100.png","188","test",".","image-keyboard-response","148","133635","0.0-3.0-1.72","false"
"578","ImagesTennis/TL107.5.png","188","test",",","image-keyboard-response","150","134715","0.0-3.0-1.73","true"
"1103","ImagesDirect/VR107.5.png","190","test",".","image-keyboard-response","152","136321","0.0-3.0-1.74","true"
"3275","ImagesTennis/TR100.png","188","test",".","image-keyboard-response","154","140099","0.0-3.0-1.75","false"
"581","ImagesDirect/VL90.png","190","test",".","image-keyboard-response","156","141183","0.0-3.0-1.76","true"
"862","ImagesDirect/VL105.png","190","test",",","image-keyboard-response","158","142548","0.0-3.0-1.77","false"
"651","ImagesDirect/VL92.5.png","190","test",".","image-keyboard-response","160","143703","0.0-3.0-1.78","true"
"668","ImagesTennis/TR107.5.png","190","test",".","image-keyboard-response","162","144874","0.0-3.0-1.79","true"
"634","ImagesDirect/VL102.5.png","190","test",",","image-keyboard-response","164","146010","0.0-3.0-1.80","false"
"549","ImagesDirect/VR110.png","190","test",".","image-keyboard-response","166","147063","0.0-3.0-1.81","true"
"1383","ImagesDirect/VL97.5.png","188","test",".","image-keyboard-response","168","148948","0.0-3.0-1.82","false"
"1487","ImagesSoccer/VR92.5.png","190","test",",","image-keyboard-response","170","150938","0.0-3.0-1.83","false"
"572","ImagesDirect/VR102.5.png","190","test",".","image-keyboard-response","172","152013","0.0-3.0-1.84","true"
"697","ImagesDirect/VL110.png","188","test",",","image-keyboard-response","174","153213","0.0-3.0-1.85","true"
"1166","ImagesDirect/VR90.png","188","test",",","image-keyboard-response","176","154883","0.0-3.0-1.86","true"
"807","ImagesSoccer/VR105.png","190","test",".","image-keyboard-response","178","156192","0.0-3.0-1.87","true"
"2693","ImagesSoccer/VL95.png","190","test",".","image-keyboard-response","180","159388","0.0-3.0-1.88","true"
"1087","ImagesTennis/TR90.png","188","test",",","image-keyboard-response","182","160978","0.0-3.0-1.89","true"
"740","ImagesSoccer/VR90.png","188","test",",","image-keyboard-response","184","162221","0.0-3.0-1.90","true"
"690","ImagesSoccer/VR102.5.png","190","test",".","image-keyboard-response","186","163414","0.0-3.0-1.91","true"
"1631","ImagesDirect/VR95.png","188","test",",","image-keyboard-response","188","165548","0.0-3.0-1.92","true"
"2710","ImagesTennis/TR97.5.png","188","test",",","image-keyboard-response","190","168762","0.0-3.0-1.93","true"
"1020","ImagesTennis/TL95.png","190","test",".","image-keyboard-response","192","170284","0.0-3.0-1.94","true"
"760","ImagesSoccer/VR100.png","190","test",".","image-keyboard-response","194","171547","0.0-3.0-1.95","true"
"594","ImagesSoccer/VL90.png","190","test",".","image-keyboard-response","196","172644","0.0-3.0-1.96","true"
"1210","ImagesSoccer/VR97.5.png","190","test",",","image-keyboard-response","198","174358","0.0-3.0-1.97","false"
"1122","ImagesSoccer/VL102.5.png","188","test",",","image-keyboard-response","200","175982","0.0-3.0-1.98","true"
"1215","ImagesSoccer/VL100.png","190","test",".","image-keyboard-response","202","177700","0.0-3.0-1.99","true"
"600","ImagesSoccer/VL92.5.png","190","test",".","image-keyboard-response","204","178804","0.0-3.0-1.100","true"
"1009","ImagesDirect/VL95.png","190","test",".","image-keyboard-response","206","180316","0.0-3.0-1.101","true"
"504","ImagesSoccer/VL97.5.png","190","test",".","image-keyboard-response","208","181323","0.0-3.0-1.102","true"
"1396","ImagesTennis/TR102.5.png","190","test",".","image-keyboard-response","210","183222","0.0-3.0-1.103","true"
"790","ImagesTennis/TL110.png","188","test",",","image-keyboard-response","212","184515","0.0-3.0-1.104","true"
"630","ImagesTennis/TL92.5.png","190","test",".","image-keyboard-response","214","185647","0.0-3.0-1.105","true"
"708","ImagesSoccer/VR110.png","190","test",".","image-keyboard-response","216","186858","0.0-3.0-1.106","true"
"792","ImagesTennis/TR105.png","188","test",".","image-keyboard-response","218","188153","0.0-3.0-1.107","false"
"633","ImagesDirect/VL107.5.png","188","test",",","image-keyboard-response","220","189289","0.0-3.0-1.108","true"
"1203","ImagesDirect/VL100.png","188","test",".","image-keyboard-response","222","190996","0.0-3.0-1.109","false"
"1928","ImagesDirect/VL90.png","190","test",".","image-keyboard-response","224","193426","0.0-3.0-1.110","true"
"715","ImagesDirect/VL110.png","188","test",",","image-keyboard-response","226","194643","0.0-3.0-1.111","true"
"857","ImagesDirect/VL92.5.png","190","test",".","image-keyboard-response","228","196002","0.0-3.0-1.112","true"
"584","ImagesSoccer/VR110.png","190","test",".","image-keyboard-response","230","197089","0.0-3.0-1.113","true"
"1221","ImagesDirect/VL97.5.png","188","test",".","image-keyboard-response","232","198815","0.0-3.0-1.114","false"
"941","ImagesSoccer/VL92.5.png","190","test",".","image-keyboard-response","234","200259","0.0-3.0-1.115","true"
"525","ImagesDirect/VR107.5.png","190","test",".","image-keyboard-response","236","201286","0.0-3.0-1.116","true"
"581","ImagesTennis/TR100.png","188","test",".","image-keyboard-response","238","202369","0.0-3.0-1.117","false"
"504","ImagesTennis/TR95.png","188","test",",","image-keyboard-response","240","203377","0.0-3.0-1.118","true"
"884","ImagesTennis/TR110.png","190","test",".","image-keyboard-response","242","204763","0.0-3.0-1.119","true"
"893","ImagesDirect/VR95.png","188","test",",","image-keyboard-response","244","206159","0.0-3.0-1.120","true"
"590","ImagesTennis/TR105.png","190","test",".","image-keyboard-response","246","207252","0.0-3.0-1.121","true"
"510","ImagesSoccer/VL105.png","188","test",",","image-keyboard-response","248","208265","0.0-3.0-1.122","true"
"562","ImagesTennis/TL92.5.png","190","test",".","image-keyboard-response","250","209330","0.0-3.0-1.123","true"
"790","ImagesSoccer/VL95.png","190","test",".","image-keyboard-response","252","210623","0.0-3.0-1.124","true"
"532","ImagesTennis/TL97.5.png","188","test",".","image-keyboard-response","254","211658","0.0-3.0-1.125","false"
"698","ImagesTennis/TL102.5.png","188","test",",","image-keyboard-response","256","212858","0.0-3.0-1.126","true"
"589","ImagesSoccer/VL100.png","188","test",".","image-keyboard-response","258","213949","0.0-3.0-1.127","false"
"597","ImagesSoccer/VR95.png","190","test",",","image-keyboard-response","260","215049","0.0-3.0-1.128","false"
"666","ImagesTennis/TR97.5.png","188","test",",","image-keyboard-response","262","216218","0.0-3.0-1.129","true"
"1722","ImagesTennis/TR102.5.png","190","test",".","image-keyboard-response","264","218443","0.0-3.0-1.130","true"
"1241","ImagesSoccer/VR97.5.png","188","test",",","image-keyboard-response","266","220187","0.0-3.0-1.131","true"
"646","ImagesDirect/VR105.png","190","test",".","image-keyboard-response","268","221336","0.0-3.0-1.132","true"
"1547","ImagesTennis/TL105.png","188","test",",","image-keyboard-response","270","223386","0.0-3.0-1.133","true"
"916","ImagesTennis/TL100.png","188","test",".","image-keyboard-response","272","224805","0.0-3.0-1.134","false"
"1086","ImagesTennis/TL90.png","190","test",".","image-keyboard-response","274","226394","0.0-3.0-1.135","true"
"801","ImagesDirect/VR110.png","190","test",".","image-keyboard-response","276","227698","0.0-3.0-1.136","true"
"593","ImagesDirect/VL102.5.png","188","test",",","image-keyboard-response","278","228795","0.0-3.0-1.137","true"
"594","ImagesSoccer/VL107.5.png","188","test",",","image-keyboard-response","280","229891","0.0-3.0-1.138","true"
"442","ImagesSoccer/VR92.5.png","190","test",",","image-keyboard-response","282","230836","0.0-3.0-1.139","false"
"250","ImagesSoccer/VL110.png","188","test",",","image-keyboard-response","284","231588","0.0-3.0-1.140","true"
"760","ImagesSoccer/VL97.5.png","190","test",".","image-keyboard-response","286","232851","0.0-3.0-1.141","true"
"494","ImagesDirect/VL105.png","188","test",",","image-keyboard-response","288","233847","0.0-3.0-1.142","true"
"587","ImagesDirect/VR97.5.png","190","test",",","image-keyboard-response","290","234937","0.0-3.0-1.143","false"
"784","ImagesSoccer/VR90.png","188","test",",","image-keyboard-response","292","236224","0.0-3.0-1.144","true"
"584","ImagesSoccer/VR102.5.png","190","test",".","image-keyboard-response","294","237311","0.0-3.0-1.145","true"
"637","ImagesDirect/VR100.png","190","test",".","image-keyboard-response","296","238451","0.0-3.0-1.146","true"
"870","ImagesTennis/TL95.png","188","test",".","image-keyboard-response","298","239824","0.0-3.0-1.147","false"
"509","ImagesSoccer/VL90.png","190","test",".","image-keyboard-response","300","240836","0.0-3.0-1.148","true"
"822","ImagesTennis/TR107.5.png","190","test",".","image-keyboard-response","302","242161","0.0-3.0-1.149","true"
"580","ImagesSoccer/VR100.png","190","test",".","image-keyboard-response","304","243243","0.0-3.0-1.150","true"
"492","ImagesDirect/VR92.5.png","190","test",",","image-keyboard-response","306","244238","0.0-3.0-1.151","false"
"363","ImagesDirect/VR90.png","190","test",",","image-keyboard-response","308","245104","0.0-3.0-1.152","false"
"547","ImagesSoccer/VL102.5.png","188","test",",","image-keyboard-response","310","246154","0.0-3.0-1.153","true"
"390","ImagesTennis/TL110.png","190","test",",","image-keyboard-response","312","247047","0.0-3.0-1.154","false"
"690","ImagesDirect/VR102.5.png","190","test",".","image-keyboard-response","314","248240","0.0-3.0-1.155","true"
"419","ImagesSoccer/VR107.5.png","190","test",".","image-keyboard-response","316","249162","0.0-3.0-1.156","true"
"301","ImagesTennis/TL107.5.png","190","test",",","image-keyboard-response","318","249966","0.0-3.0-1.157","false"
"360","ImagesDirect/VL95.png","190","test",".","image-keyboard-response","320","250830","0.0-3.0-1.158","true"
"203","ImagesTennis/TR92.5.png","190","test",",","image-keyboard-response","322","251537","0.0-3.0-1.159","false"
"788","ImagesSoccer/VR105.png","190","test",".","image-keyboard-response","324","252828","0.0-3.0-1.160","true"
"536","ImagesTennis/TR90.png","188","test",",","image-keyboard-response","326","253865","0.0-3.0-1.161","true"
"430","ImagesTennis/TR102.5.png","188","test",".","image-keyboard-response","328","254798","0.0-3.0-1.162","false"
"1363","ImagesSoccer/VL95.png","190","test",".","image-keyboard-response","330","256664","0.0-3.0-1.163","true"
"608","ImagesSoccer/VL100.png","188","test",".","image-keyboard-response","332","257774","0.0-3.0-1.164","false"
"747","ImagesSoccer/VR105.png","190","test",".","image-keyboard-response","334","259024","0.0-3.0-1.165","true"
"726","ImagesSoccer/VL105.png","188","test",",","image-keyboard-response","336","260253","0.0-3.0-1.166","true"
"546","ImagesTennis/TR107.5.png","190","test",".","image-keyboard-response","338","261302","0.0-3.0-1.167","true"
"1056","ImagesTennis/TR100.png","188","test",".","image-keyboard-response","340","262861","0.0-3.0-1.168","false"
"588","ImagesDirect/VL90.png","190","test",".","image-keyboard-response","342","263952","0.0-3.0-1.169","true"
"1045","ImagesDirect/VL92.5.png","190","test",".","image-keyboard-response","344","265500","0.0-3.0-1.170","true"
"770","ImagesDirect/VR102.5.png","190","test",".","image-keyboard-response","346","266772","0.0-3.0-1.171","true"
"810","ImagesTennis/TR90.png","188","test",",","image-keyboard-response","348","268085","0.0-3.0-1.172","true"
"2852","ImagesSoccer/VR97.5.png","190","test",",","image-keyboard-response","350","271440","0.0-3.0-1.173","false"
"669","ImagesSoccer/VR90.png","188","test",",","image-keyboard-response","352","272613","0.0-3.0-1.174","true"
"717","ImagesDirect/VR100.png","188","test",".","image-keyboard-response","354","273833","0.0-3.0-1.175","false"
"1075","ImagesDirect/VR92.5.png","188","test",",","image-keyboard-response","356","275411","0.0-3.0-1.176","true"
"1291","ImagesDirect/VL102.5.png","188","test",",","image-keyboard-response","358","277205","0.0-3.0-1.177","true"
"741","ImagesDirect/VR90.png","188","test",",","image-keyboard-response","360","278449","0.0-3.0-1.178","true"
"617","ImagesTennis/TR95.png","188","test",",","image-keyboard-response","362","279569","0.0-3.0-1.179","true"
"754","ImagesTennis/TR97.5.png","188","test",",","image-keyboard-response","364","280827","0.0-3.0-1.180","true"
"320","ImagesDirect/VL105.png","188","test",",","image-keyboard-response","366","281650","0.0-3.0-1.181","true"
"1679","ImagesDirect/VR95.png","188","test",",","image-keyboard-response","368","283832","0.0-3.0-1.182","true"
"1031","ImagesSoccer/VR95.png","190","test",",","image-keyboard-response","370","285366","0.0-3.0-1.183","false"
"572","ImagesTennis/TL107.5.png","188","test",",","image-keyboard-response","372","286441","0.0-3.0-1.184","true"
"620","ImagesTennis/TL95.png","190","test",".","image-keyboard-response","374","287564","0.0-3.0-1.185","true"
"1060","ImagesDirect/VL97.5.png","188","test",".","image-keyboard-response","376","289127","0.0-3.0-1.186","false"
"674","ImagesSoccer/VL90.png","190","test",".","image-keyboard-response","378","290304","0.0-3.0-1.187","true"
"958","ImagesTennis/TL100.png","190","test",".","image-keyboard-response","380","291765","0.0-3.0-1.188","true"
"758","ImagesSoccer/VR110.png","190","test",".","image-keyboard-response","382","293026","0.0-3.0-1.189","true"
"399","ImagesDirect/VR105.png","190","test",".","image-keyboard-response","384","293928","0.0-3.0-1.190","true"
"694","ImagesTennis/TR110.png","190","test",".","image-keyboard-response","386","295125","0.0-3.0-1.191","true"
"458","ImagesDirect/VR110.png","190","test",".","image-keyboard-response","388","296086","0.0-3.0-1.192","true"
"577","ImagesDirect/VL110.png","188","test",",","image-keyboard-response","390","297166","0.0-3.0-1.193","true"
"482","ImagesDirect/VR97.5.png","190","test",",","image-keyboard-response","392","298150","0.0-3.0-1.194","false"
"578","ImagesSoccer/VR92.5.png","190","test",",","image-keyboard-response","394","299232","0.0-3.0-1.195","false"
"421","ImagesSoccer/VL97.5.png","188","test",".","image-keyboard-response","396","300157","0.0-3.0-1.196","false"
"399","ImagesSoccer/VR107.5.png","190","test",".","image-keyboard-response","398","301058","0.0-3.0-1.197","true"
"579","ImagesSoccer/VL92.5.png","188","test",".","image-keyboard-response","400","302139","0.0-3.0-1.198","false"
"371","ImagesTennis/TL105.png","190","test",",","image-keyboard-response","402","303014","0.0-3.0-1.199","false"
"446","ImagesSoccer/VL107.5.png","188","test",",","image-keyboard-response","404","303962","0.0-3.0-1.200","true"
"481","ImagesSoccer/VR100.png","190","test",".","image-keyboard-response","406","304947","0.0-3.0-1.201","true"
"445","ImagesTennis/TL102.5.png","188","test",",","image-keyboard-response","408","305894","0.0-3.0-1.202","true"
"313","ImagesDirect/VL100.png","190","test",".","image-keyboard-response","410","306710","0.0-3.0-1.203","true"
"381","ImagesTennis/TL97.5.png","188","test",".","image-keyboard-response","412","307594","0.0-3.0-1.204","false"
"450","ImagesTennis/TL90.png","190","test",".","image-keyboard-response","414","308547","0.0-3.0-1.205","true"
"443","ImagesDirect/VR107.5.png","190","test",".","image-keyboard-response","416","309493","0.0-3.0-1.206","true"
"538","ImagesTennis/TR92.5.png","188","test",",","image-keyboard-response","418","310534","0.0-3.0-1.207","true"
"922","ImagesSoccer/VL110.png","188","test",",","image-keyboard-response","420","311958","0.0-3.0-1.208","true"
"520","ImagesTennis/TL110.png","188","test",",","image-keyboard-response","422","312981","0.0-3.0-1.209","true"
"537","ImagesTennis/TR105.png","190","test",".","image-keyboard-response","424","314022","0.0-3.0-1.210","true"
"1109","ImagesTennis/TL92.5.png","190","test",".","image-keyboard-response","426","315633","0.0-3.0-1.211","true"
"963","ImagesDirect/VL107.5.png","188","test",",","image-keyboard-response","428","317099","0.0-3.0-1.212","true"
"523","ImagesSoccer/VR102.5.png","190","test",".","image-keyboard-response","430","318124","0.0-3.0-1.213","true"
"560","ImagesSoccer/VL102.5.png","188","test",",","image-keyboard-response","432","319188","0.0-3.0-1.214","true"
"636","ImagesDirect/VL95.png","188","test",".","image-keyboard-response","434","320326","0.0-3.0-1.215","false"
"543","ImagesSoccer/VL90.png","190","test",".","image-keyboard-response","436","321372","0.0-3.0-1.216","true"
"389","ImagesTennis/TR110.png","188","test",".","image-keyboard-response","438","322264","0.0-3.0-1.217","false"
"534","ImagesTennis/TR97.5.png","188","test",",","image-keyboard-response","440","323301","0.0-3.0-1.218","true"
"539","ImagesDirect/VR107.5.png","190","test",".","image-keyboard-response","442","324343","0.0-3.0-1.219","true"
"654","ImagesDirect/VR95.png","190","test",",","image-keyboard-response","444","325500","0.0-3.0-1.220","false"
"811","ImagesSoccer/VL92.5.png","188","test",".","image-keyboard-response","446","326814","0.0-3.0-1.221","false"
"649","ImagesTennis/TL97.5.png","188","test",".","image-keyboard-response","448","327966","0.0-3.0-1.222","false"
"444","ImagesSoccer/VR92.5.png","190","test",",","image-keyboard-response","450","328914","0.0-3.0-1.223","false"
"272","ImagesSoccer/VL110.png","188","test",",","image-keyboard-response","452","329689","0.0-3.0-1.224","true"
"511","ImagesDirect/VR97.5.png","190","test",",","image-keyboard-response","454","330702","0.0-3.0-1.225","false"
"355","ImagesTennis/TR100.png","188","test",".","image-keyboard-response","456","331560","0.0-3.0-1.226","false"
"332","ImagesSoccer/VL105.png","188","test",",","image-keyboard-response","458","332394","0.0-3.0-1.227","true"
"269","ImagesTennis/TR102.5.png","190","test",".","image-keyboard-response","460","333167","0.0-3.0-1.228","true"
"353","ImagesTennis/TR90.png","188","test",",","image-keyboard-response","462","334023","0.0-3.0-1.229","true"
"335","ImagesDirect/VL92.5.png","188","test",".","image-keyboard-response","464","334861","0.0-3.0-1.230","false"
"247","ImagesTennis/TR95.png","188","test",",","image-keyboard-response","466","335611","0.0-3.0-1.231","true"
"281","ImagesDirect/VL105.png","190","test",",","image-keyboard-response","468","336395","0.0-3.0-1.232","false"
"268","ImagesDirect/VL110.png","188","test",",","image-keyboard-response","470","337166","0.0-3.0-1.233","true"
"271","ImagesTennis/TL107.5.png","190","test",",","image-keyboard-response","472","337940","0.0-3.0-1.234","false"
"230","ImagesSoccer/VR100.png","188","test",".","image-keyboard-response","474","338673","0.0-3.0-1.235","false"
"232","ImagesTennis/TL90.png","190","test",".","image-keyboard-response","476","339408","0.0-3.0-1.236","true"
"868","ImagesTennis/TL110.png","188","test",",","image-keyboard-response","478","340779","0.0-3.0-1.237","true"
"973","ImagesSoccer/VL97.5.png","190","test",".","image-keyboard-response","480","342255","0.0-3.0-1.238","true"
"328","ImagesSoccer/VL95.png","190","test",".","image-keyboard-response","482","343086","0.0-3.0-1.239","true"
"601","ImagesDirect/VL107.5.png","190","test",",","image-keyboard-response","484","344189","0.0-3.0-1.240","false"
"1302","ImagesTennis/TL102.5.png","188","test",",","image-keyboard-response","486","345994","0.0-3.0-1.241","true"
"610","ImagesTennis/TL95.png","188","test",".","image-keyboard-response","488","347108","0.0-3.0-1.242","false"
"633","ImagesSoccer/VR102.5.png","190","test",".","image-keyboard-response","490","348244","0.0-3.0-1.243","true"
"1190","ImagesSoccer/VL102.5.png","188","test",",","image-keyboard-response","492","349936","0.0-3.0-1.244","true"
"627","ImagesDirect/VR110.png","190","test",".","image-keyboard-response","494","351066","0.0-3.0-1.245","true"
"1550","ImagesTennis/TL100.png","190","test",".","image-keyboard-response","496","353119","0.0-3.0-1.246","true"
"854","ImagesDirect/VL90.png","190","test",".","image-keyboard-response","498","354476","0.0-3.0-1.247","true"
"1021","ImagesSoccer/VR110.png","190","test",".","image-keyboard-response","500","355999","0.0-3.0-1.248","true"
"1503","ImagesTennis/TL92.5.png","190","test",".","image-keyboard-response","502","358005","0.0-3.0-1.249","true"
"1337","ImagesSoccer/VR105.png","190","test",".","image-keyboard-response","504","359845","0.0-3.0-1.250","true"
"2471","ImagesDirect/VR90.png","188","test",",","image-keyboard-response","506","362818","0.0-3.0-1.251","true"
"1496","ImagesDirect/VR105.png","190","test",".","image-keyboard-response","508","364816","0.0-3.0-1.252","true"
"848","ImagesTennis/TL105.png","188","test",",","image-keyboard-response","510","366167","0.0-3.0-1.253","true"
"1959","ImagesSoccer/VR97.5.png","188","test",",","image-keyboard-response","512","368629","0.0-3.0-1.254","true"
"793","ImagesDirect/VR102.5.png","190","test",".","image-keyboard-response","514","369925","0.0-3.0-1.255","true"
"1013","ImagesSoccer/VL107.5.png","188","test",",","image-keyboard-response","516","371441","0.0-3.0-1.256","true"
"499","ImagesSoccer/VR107.5.png","190","test",".","image-keyboard-response","518","372442","0.0-3.0-1.257","true"
"1330","ImagesSoccer/VR95.png","188","test",",","image-keyboard-response","520","374274","0.0-3.0-1.258","true"
"524","ImagesSoccer/VR90.png","188","test",",","image-keyboard-response","522","375301","0.0-3.0-1.259","true"
"1563","ImagesDirect/VL97.5.png","188","test",".","image-keyboard-response","524","377366","0.0-3.0-1.260","false"
"1804","ImagesDirect/VL95.png","188","test",".","image-keyboard-response","526","379673","0.0-3.0-1.261","false"
"754","ImagesSoccer/VL100.png","188","test",".","image-keyboard-response","528","380930","0.0-3.0-1.262","false"
"626","ImagesDirect/VL100.png","188","test",".","image-keyboard-response","530","382059","0.0-3.0-1.263","false"
"660","ImagesDirect/VL102.5.png","190","test",",","image-keyboard-response","532","383222","0.0-3.0-1.264","false"
"600","ImagesDirect/VR100.png","190","test",".","image-keyboard-response","534","384325","0.0-3.0-1.265","true"
"531","ImagesTennis/TR92.5.png","188","test",",","image-keyboard-response","536","385359","0.0-3.0-1.266","true"
"504","ImagesTennis/TR107.5.png","190","test",".","image-keyboard-response","538","386366","0.0-3.0-1.267","true"
"1313","ImagesTennis/TR105.png","190","test",".","image-keyboard-response","540","388181","0.0-3.0-1.268","true"
"1191","ImagesDirect/VR92.5.png","188","test",",","image-keyboard-response","542","389876","0.0-3.0-1.269","true"
"1562","ImagesCoins/10L102.5.png","188","test",",","image-keyboard-response","544","391941","0.0-4.0-1.0","true"
"985","ImagesCoins/10R102.5.png","190","test",".","image-keyboard-response","546","393429","0.0-4.0-1.1","true"
"1238","ImagesCoins/10L90.png","188","test",".","image-keyboard-response","548","395170","0.0-4.0-1.2","false"
"920","ImagesCoins/10R97.5.png","188","test",",","image-keyboard-response","550","396593","0.0-4.0-1.3","true"
"756","ImagesCoins/10R107.5.png","190","test",".","image-keyboard-response","552","397852","0.0-4.0-1.4","true"
"692","ImagesCoins/10L100.png","188","test",".","image-keyboard-response","554","399047","0.0-4.0-1.5","false"
"1868","ImagesCoins/10L95.png","190","test",".","image-keyboard-response","556","401418","0.0-4.0-1.6","true"
"549","ImagesCoins/10R105.png","188","test",".","image-keyboard-response","558","402471","0.0-4.0-1.7","false"
"796","ImagesCoins/10L105.png","188","test",",","image-keyboard-response","560","403771","0.0-4.0-1.8","true"
"1148","ImagesCoins/10R92.5.png","188","test",",","image-keyboard-response","562","405420","0.0-4.0-1.9","true"
"1225","ImagesCoins/10R110.png","188","test",".","image-keyboard-response","564","407148","0.0-4.0-1.10","false"
"1046","ImagesCoins/10R100.png","188","test",".","image-keyboard-response","566","408697","0.0-4.0-1.11","false"
"789","ImagesCoins/10R90.png","188","test",",","image-keyboard-response","568","409989","0.0-4.0-1.12","true"
"1730","ImagesCoins/10L110.png","188","test",",","image-keyboard-response","570","412222","0.0-4.0-1.13","true"
"676","ImagesCoins/10L92.5.png","190","test",".","image-keyboard-response","572","413401","0.0-4.0-1.14","true"
"1193","ImagesCoins/10R95.png","190","test",",","image-keyboard-response","574","415098","0.0-4.0-1.15","false"
"1030","ImagesCoins/10L97.5.png","190","test",".","image-keyboard-response","576","416631","0.0-4.0-1.16","true"
"1614","ImagesCoins/10L107.5.png","188","test",",","image-keyboard-response","578","418748","0.0-4.0-1.17","true"
"513","ImagesCoins/10R97.5.png","190","test",",","image-keyboard-response","580","419764","0.0-4.0-1.18","false"
"971","ImagesCoins/10L107.5.png","190","test",",","image-keyboard-response","582","421238","0.0-4.0-1.19","false"
"832","ImagesCoins/10R95.png","188","test",",","image-keyboard-response","584","422573","0.0-4.0-1.20","true"
"648","ImagesCoins/10L102.5.png","190","test",",","image-keyboard-response","586","423724","0.0-4.0-1.21","false"
"943","ImagesCoins/10R100.png","190","test",".","image-keyboard-response","588","425170","0.0-4.0-1.22","true"
"2714","ImagesCoins/10L105.png","188","test",",","image-keyboard-response","590","428387","0.0-4.0-1.23","true"
"830","ImagesCoins/10L92.5.png","190","test",".","image-keyboard-response","592","429720","0.0-4.0-1.24","true"
"462","ImagesCoins/10L90.png","190","test",".","image-keyboard-response","594","430684","0.0-4.0-1.25","true"
"835","ImagesCoins/10R102.5.png","190","test",".","image-keyboard-response","596","432022","0.0-4.0-1.26","true"
"1082","ImagesCoins/10R92.5.png","190","test",",","image-keyboard-response","598","433607","0.0-4.0-1.27","false"
"577","ImagesCoins/10R110.png","190","test",".","image-keyboard-response","600","434687","0.0-4.0-1.28","true"
"1233","ImagesCoins/10R107.5.png","190","test",".","image-keyboard-response","602","436423","0.0-4.0-1.29","true"
"2239","ImagesCoins/10R90.png","188","test",",","image-keyboard-response","604","439165","0.0-4.0-1.30","true"
"3211","ImagesCoins/10L100.png","188","test",".","image-keyboard-response","606","442879","0.0-4.0-1.31","false"
"1206","ImagesCoins/10L95.png","188","test",".","image-keyboard-response","608","444588","0.0-4.0-1.32","false"
"1042","ImagesCoins/10L110.png","188","test",",","image-keyboard-response","610","446133","0.0-4.0-1.33","true"
"559","ImagesCoins/10R105.png","188","test",".","image-keyboard-response","612","447195","0.0-4.0-1.34","false"
"2819","ImagesCoins/10L97.5.png","190","test",".","image-keyboard-response","614","450518","0.0-4.0-1.35","true"
"1955","ImagesCoins/10L100.png","190","test",".","image-keyboard-response","616","452976","0.0-4.0-1.36","true"
"3615","ImagesCoins/10R95.png","188","test",",","image-keyboard-response","618","457096","0.0-4.0-1.37","true"
"632","ImagesCoins/10L92.5.png","190","test",".","image-keyboard-response","620","458231","0.0-4.0-1.38","true"
"660","ImagesCoins/10L90.png","190","test",".","image-keyboard-response","622","459395","0.0-4.0-1.39","true"
"626","ImagesCoins/10L110.png","188","test",",","image-keyboard-response","624","460524","0.0-4.0-1.40","true"
"1604","ImagesCoins/10R92.5.png","190","test",",","image-keyboard-response","626","462631","0.0-4.0-1.41","false"
"608","ImagesCoins/10L105.png","188","test",",","image-keyboard-response","628","463742","0.0-4.0-1.42","true"
"590","ImagesCoins/10L107.5.png","188","test",",","image-keyboard-response","630","464835","0.0-4.0-1.43","true"
"540","ImagesCoins/10R105.png","190","test",".","image-keyboard-response","632","465879","0.0-4.0-1.44","true"
"426","ImagesCoins/10L102.5.png","188","test",",","image-keyboard-response","634","466808","0.0-4.0-1.45","true"
"404","ImagesCoins/10R110.png","190","test",".","image-keyboard-response","636","467715","0.0-4.0-1.46","true"
"309","ImagesCoins/10R100.png","188","test",".","image-keyboard-response","638","468527","0.0-4.0-1.47","false"
"325","ImagesCoins/10R107.5.png","188","test",".","image-keyboard-response","640","469355","0.0-4.0-1.48","false"
"1701","ImagesCoins/10R90.png","188","test",",","image-keyboard-response","642","471558","0.0-4.0-1.49","true"
"725","ImagesCoins/10L97.5.png","188","test",".","image-keyboard-response","644","472787","0.0-4.0-1.50","false"
"983","ImagesCoins/10R102.5.png","190","test",".","image-keyboard-response","646","474272","0.0-4.0-1.51","true"
"978","ImagesCoins/10R97.5.png","188","test",",","image-keyboard-response","648","475753","0.0-4.0-1.52","true"
"602","ImagesCoins/10L95.png","190","test",".","image-keyboard-response","650","476857","0.0-4.0-1.53","true"
"551","ImagesCoins/10L110.png","188","test",",","image-keyboard-response","652","477911","0.0-4.0-1.54","true"
"1229","ImagesCoins/10R100.png","188","test",".","image-keyboard-response","654","479642","0.0-4.0-1.55","false"
"1033","ImagesCoins/10L107.5.png","188","test",",","image-keyboard-response","656","481178","0.0-4.0-1.56","true"
"782","ImagesCoins/10L92.5.png","188","test",".","image-keyboard-response","658","482463","0.0-4.0-1.57","false"
"725","ImagesCoins/10L95.png","190","test",".","image-keyboard-response","660","483690","0.0-4.0-1.58","true"
"2624","ImagesCoins/10R90.png","188","test",",","image-keyboard-response","662","486817","0.0-4.0-1.59","true"
"760","ImagesCoins/10R97.5.png","188","test",",","image-keyboard-response","664","488080","0.0-4.0-1.60","true"
"666","ImagesCoins/10R102.5.png","188","test",".","image-keyboard-response","666","489249","0.0-4.0-1.61","false"
"636","ImagesCoins/10L102.5.png","188","test",",","image-keyboard-response","668","490388","0.0-4.0-1.62","true"
"816","ImagesCoins/10R105.png","190","test",".","image-keyboard-response","670","491708","0.0-4.0-1.63","true"
"771","ImagesCoins/10R95.png","188","test",",","image-keyboard-response","672","492982","0.0-4.0-1.64","true"
"769","ImagesCoins/10R92.5.png","190","test",",","image-keyboard-response","674","494254","0.0-4.0-1.65","false"
"706","ImagesCoins/10R110.png","188","test",".","image-keyboard-response","676","495463","0.0-4.0-1.66","false"
"494","ImagesCoins/10L105.png","188","test",",","image-keyboard-response","678","496460","0.0-4.0-1.67","true"
"551","ImagesCoins/10L90.png","188","test",".","image-keyboard-response","680","497514","0.0-4.0-1.68","false"
"655","ImagesCoins/10R107.5.png","190","test",".","image-keyboard-response","682","498672","0.0-4.0-1.69","true"
"523","ImagesCoins/10L100.png","188","test",".","image-keyboard-response","684","499700","0.0-4.0-1.70","false"
"555","ImagesCoins/10L97.5.png","188","test",".","image-keyboard-response","686","500758","0.0-4.0-1.71","false"
"464","ImagesCoins/10L102.5.png","188","test",",","image-keyboard-response","688","501726","0.0-4.0-1.72","true"
"662","ImagesCoins/10L92.5.png","190","test",".","image-keyboard-response","690","502891","0.0-4.0-1.73","true"
"585","ImagesCoins/10R110.png","188","test",".","image-keyboard-response","692","503979","0.0-4.0-1.74","false"
"1595","ImagesCoins/10L97.5.png","188","test",".","image-keyboard-response","694","506077","0.0-4.0-1.75","false"
"719","ImagesCoins/10R107.5.png","190","test",".","image-keyboard-response","696","507300","0.0-4.0-1.76","true"
"704","ImagesCoins/10R97.5.png","188","test",",","image-keyboard-response","698","508508","0.0-4.0-1.77","true"
"877","ImagesCoins/10R105.png","188","test",".","image-keyboard-response","700","509888","0.0-4.0-1.78","false"
"711","ImagesCoins/10R102.5.png","190","test",".","image-keyboard-response","702","511102","0.0-4.0-1.79","true"
"1505","ImagesCoins/10L95.png","188","test",".","image-keyboard-response","704","513110","0.0-4.0-1.80","false"
"894","ImagesCoins/10L107.5.png","188","test",",","image-keyboard-response","706","514507","0.0-4.0-1.81","true"
"1260","ImagesCoins/10R92.5.png","188","test",",","image-keyboard-response","708","516271","0.0-4.0-1.82","true"
"566","ImagesCoins/10R95.png","188","test",",","image-keyboard-response","710","517341","0.0-4.0-1.83","true"
"772","ImagesCoins/10L100.png","188","test",".","image-keyboard-response","712","518615","0.0-4.0-1.84","false"
"767","ImagesCoins/10L90.png","190","test",".","image-keyboard-response","714","519885","0.0-4.0-1.85","true"
"620","ImagesCoins/10R90.png","188","test",",","image-keyboard-response","716","521008","0.0-4.0-1.86","true"
"624","ImagesCoins/10L105.png","188","test",",","image-keyboard-response","718","522135","0.0-4.0-1.87","true"
"501","ImagesCoins/10L110.png","188","test",",","image-keyboard-response","720","523139","0.0-4.0-1.88","true"
"623","ImagesCoins/10R100.png","190","test",".","image-keyboard-response","722","524265","0.0-4.0-1.89","true"
