rt;stimulus;key_press;test_part;correct_response;trial_type;trial_index;time_elapsed;internal_node_id;correct
2649;ImagesCoins/10R90.png;188;test;,;image-keyboard-response;4;25224;0.0-3.0-1.0;true
2137;ImagesCoins/10L100.png;188;test;.;image-keyboard-response;6;27879;0.0-3.0-1.1;false
1679;ImagesCoins/10L102.5.png;188;test;,;image-keyboard-response;8;30063;0.0-3.0-1.2;true
1150;ImagesCoins/10L107.5.png;188;test;,;image-keyboard-response;10;31727;0.0-3.0-1.3;true
1009;ImagesCoins/10L110.png;188;test;,;image-keyboard-response;12;33254;0.0-3.0-1.4;true
1048;ImagesCoins/10R102.5.png;190;test;.;image-keyboard-response;14;34807;0.0-3.0-1.5;true
1649;ImagesCoins/10L105.png;188;test;,;image-keyboard-response;16;36959;0.0-3.0-1.6;true
2045;ImagesCoins/10R97.5.png;188;test;,;image-keyboard-response;18;39511;0.0-3.0-1.7;true
1404;ImagesCoins/10R107.5.png;190;test;.;image-keyboard-response;20;41431;0.0-3.0-1.8;true
824;ImagesCoins/10R105.png;190;test;.;image-keyboard-response;22;42759;0.0-3.0-1.9;true
703;ImagesCoins/10R110.png;190;test;.;image-keyboard-response;24;43967;0.0-3.0-1.10;true
1145;ImagesCoins/10L95.png;190;test;.;image-keyboard-response;26;45615;0.0-3.0-1.11;true
1048;ImagesCoins/10R92.5.png;188;test;,;image-keyboard-response;28;47167;0.0-3.0-1.12;true
2357;ImagesCoins/10R100.png;190;test;.;image-keyboard-response;30;50038;0.0-3.0-1.13;true
736;ImagesCoins/10L90.png;190;test;.;image-keyboard-response;32;51279;0.0-3.0-1.14;true
898;ImagesCoins/10L97.5.png;190;test;.;image-keyboard-response;34;52693;0.0-3.0-1.15;true
894;ImagesCoins/10R95.png;188;test;,;image-keyboard-response;36;54101;0.0-3.0-1.16;true
2290;ImagesCoins/10L92.5.png;190;test;.;image-keyboard-response;38;56893;0.0-3.0-1.17;true
862;ImagesCoins/10R110.png;190;test;.;image-keyboard-response;40;58269;0.0-3.0-1.18;true
664;ImagesCoins/10L110.png;188;test;,;image-keyboard-response;42;59445;0.0-3.0-1.19;true
683;ImagesCoins/10R102.5.png;190;test;.;image-keyboard-response;44;60637;0.0-3.0-1.20;true
1469;ImagesCoins/10L95.png;190;test;.;image-keyboard-response;46;62613;0.0-3.0-1.21;true
1552;ImagesCoins/10R100.png;188;test;.;image-keyboard-response;48;64677;0.0-3.0-1.22;false
783;ImagesCoins/10R90.png;188;test;,;image-keyboard-response;50;65973;0.0-3.0-1.23;true
792;ImagesCoins/10L107.5.png;188;test;,;image-keyboard-response;52;67269;0.0-3.0-1.24;true
609;ImagesCoins/10R107.5.png;190;test;.;image-keyboard-response;54;68381;0.0-3.0-1.25;true
571;ImagesCoins/10L90.png;190;test;.;image-keyboard-response;56;69454;0.0-3.0-1.26;true
568;ImagesCoins/10L97.5.png;188;test;.;image-keyboard-response;58;70526;0.0-3.0-1.27;false
816;ImagesCoins/10R92.5.png;188;test;,;image-keyboard-response;60;71854;0.0-3.0-1.28;true
2222;ImagesCoins/10L102.5.png;190;test;,;image-keyboard-response;62;74590;0.0-3.0-1.29;false
625;ImagesCoins/10L100.png;190;test;.;image-keyboard-response;64;75726;0.0-3.0-1.30;true
789;ImagesCoins/10R105.png;190;test;.;image-keyboard-response;66;77030;0.0-3.0-1.31;true
634;ImagesCoins/10L105.png;188;test;,;image-keyboard-response;68;78166;0.0-3.0-1.32;true
543;ImagesCoins/10R97.5.png;190;test;,;image-keyboard-response;70;79214;0.0-3.0-1.33;false
767;ImagesCoins/10R95.png;188;test;,;image-keyboard-response;72;80494;0.0-3.0-1.34;true
838;ImagesCoins/10L92.5.png;190;test;.;image-keyboard-response;74;81846;0.0-3.0-1.35;true
638;ImagesCoins/10R92.5.png;188;test;,;image-keyboard-response;76;82990;0.0-3.0-1.36;true
874;ImagesCoins/10R90.png;188;test;,;image-keyboard-response;78;84366;0.0-3.0-1.37;true
931;ImagesCoins/10R100.png;190;test;.;image-keyboard-response;80;85798;0.0-3.0-1.38;true
1385;ImagesCoins/10R95.png;188;test;,;image-keyboard-response;82;87686;0.0-3.0-1.39;true
605;ImagesCoins/10L90.png;190;test;.;image-keyboard-response;84;88806;0.0-3.0-1.40;true
832;ImagesCoins/10L95.png;190;test;.;image-keyboard-response;86;90150;0.0-3.0-1.41;true
931;ImagesCoins/10L102.5.png;188;test;,;image-keyboard-response;88;91582;0.0-3.0-1.42;true
768;ImagesCoins/10R102.5.png;190;test;.;image-keyboard-response;90;92854;0.0-3.0-1.43;true
638;ImagesCoins/10L105.png;188;test;,;image-keyboard-response;92;94006;0.0-3.0-1.44;true
491;ImagesCoins/10R110.png;190;test;.;image-keyboard-response;94;94998;0.0-3.0-1.45;true
707;ImagesCoins/10L110.png;188;test;,;image-keyboard-response;96;96206;0.0-3.0-1.46;true
734;ImagesCoins/10R105.png;190;test;.;image-keyboard-response;98;97454;0.0-3.0-1.47;true
976;ImagesCoins/10L92.5.png;190;test;.;image-keyboard-response;100;98942;0.0-3.0-1.48;true
675;ImagesCoins/10L107.5.png;188;test;,;image-keyboard-response;102;100126;0.0-3.0-1.49;true
1014;ImagesCoins/10L97.5.png;188;test;.;image-keyboard-response;104;101647;0.0-3.0-1.50;false
957;ImagesCoins/10L100.png;188;test;.;image-keyboard-response;106;103110;0.0-3.0-1.51;false
1184;ImagesCoins/10R97.5.png;188;test;,;image-keyboard-response;108;104798;0.0-3.0-1.52;true
880;ImagesCoins/10R107.5.png;190;test;.;image-keyboard-response;110;106182;0.0-3.0-1.53;true
1003;ImagesCoins/10R102.5.png;190;test;.;image-keyboard-response;112;107686;0.0-3.0-1.54;true
684;ImagesCoins/10L105.png;188;test;,;image-keyboard-response;114;108886;0.0-3.0-1.55;true
517;ImagesCoins/10R107.5.png;190;test;.;image-keyboard-response;116;109918;0.0-3.0-1.56;true
619;ImagesCoins/10R97.5.png;188;test;,;image-keyboard-response;118;111054;0.0-3.0-1.57;true
611;ImagesCoins/10L102.5.png;188;test;,;image-keyboard-response;120;112166;0.0-3.0-1.58;true
596;ImagesCoins/10R100.png;188;test;.;image-keyboard-response;122;113278;0.0-3.0-1.59;false
531;ImagesCoins/10R92.5.png;188;test;,;image-keyboard-response;124;114310;0.0-3.0-1.60;true
618;ImagesCoins/10L97.5.png;188;test;.;image-keyboard-response;126;115438;0.0-3.0-1.61;false
714;ImagesCoins/10R95.png;188;test;,;image-keyboard-response;128;116662;0.0-3.0-1.62;true
880;ImagesCoins/10R90.png;188;test;,;image-keyboard-response;130;118046;0.0-3.0-1.63;true
722;ImagesCoins/10R105.png;190;test;.;image-keyboard-response;132;119278;0.0-3.0-1.64;true
650;ImagesCoins/10L92.5.png;190;test;.;image-keyboard-response;134;120438;0.0-3.0-1.65;true
600;ImagesCoins/10L100.png;188;test;.;image-keyboard-response;136;121550;0.0-3.0-1.66;false
537;ImagesCoins/10R110.png;190;test;.;image-keyboard-response;138;122590;0.0-3.0-1.67;true
488;ImagesCoins/10L110.png;188;test;,;image-keyboard-response;140;123590;0.0-3.0-1.68;true
713;ImagesCoins/10L107.5.png;188;test;,;image-keyboard-response;142;124814;0.0-3.0-1.69;true
542;ImagesCoins/10L90.png;190;test;.;image-keyboard-response;144;125862;0.0-3.0-1.70;true
645;ImagesCoins/10L95.png;188;test;.;image-keyboard-response;146;127014;0.0-3.0-1.71;false
627;ImagesCoins/10L102.5.png;188;test;,;image-keyboard-response;148;128142;0.0-3.0-1.72;true
694;ImagesCoins/10R97.5.png;188;test;,;image-keyboard-response;150;129342;0.0-3.0-1.73;true
712;ImagesCoins/10L92.5.png;190;test;.;image-keyboard-response;152;130573;0.0-3.0-1.74;true
793;ImagesCoins/10R105.png;190;test;.;image-keyboard-response;154;131869;0.0-3.0-1.75;true
772;ImagesCoins/10L100.png;188;test;.;image-keyboard-response;156;133149;0.0-3.0-1.76;false
849;ImagesCoins/10R92.5.png;188;test;,;image-keyboard-response;158;134501;0.0-3.0-1.77;true
806;ImagesCoins/10L105.png;188;test;,;image-keyboard-response;160;135813;0.0-3.0-1.78;true
771;ImagesCoins/10L97.5.png;190;test;.;image-keyboard-response;162;137093;0.0-3.0-1.79;true
641;ImagesCoins/10R110.png;190;test;.;image-keyboard-response;164;138237;0.0-3.0-1.80;true
686;ImagesCoins/10L110.png;188;test;,;image-keyboard-response;166;139429;0.0-3.0-1.81;true
477;ImagesCoins/10L107.5.png;188;test;,;image-keyboard-response;168;140413;0.0-3.0-1.82;true
699;ImagesCoins/10R100.png;190;test;.;image-keyboard-response;170;141621;0.0-3.0-1.83;true
609;ImagesCoins/10R107.5.png;190;test;.;image-keyboard-response;172;142733;0.0-3.0-1.84;true
2699;ImagesCoins/10R95.png;188;test;,;image-keyboard-response;174;145941;0.0-3.0-1.85;true
738;ImagesCoins/10L95.png;190;test;.;image-keyboard-response;176;147189;0.0-3.0-1.86;true
685;ImagesCoins/10L90.png;190;test;.;image-keyboard-response;178;148389;0.0-3.0-1.87;true
817;ImagesCoins/10R90.png;188;test;,;image-keyboard-response;180;149709;0.0-3.0-1.88;true
660;ImagesCoins/10R102.5.png;188;test;.;image-keyboard-response;182;150870;0.0-3.0-1.89;false
1435;ImagesSoccer/VL110.png;188;test;,;image-keyboard-response;184;152813;0.0-4.0-1.0;true
992;ImagesDirect/VL107.5.png;188;test;,;image-keyboard-response;186;154318;0.0-4.0-1.1;true
2002;ImagesDirect/VR105.png;190;test;.;image-keyboard-response;188;156830;0.0-4.0-1.2;true
2150;ImagesSoccer/VR107.5.png;190;test;.;image-keyboard-response;190;159493;0.0-4.0-1.3;true
684;ImagesSoccer/VL92.5.png;188;test;.;image-keyboard-response;192;160693;0.0-4.0-1.4;false
763;ImagesSoccer/VL102.5.png;188;test;,;image-keyboard-response;194;161973;0.0-4.0-1.5;true
1064;ImagesSoccer/VL100.png;188;test;.;image-keyboard-response;196;163541;0.0-4.0-1.6;false
1426;ImagesTennis/TL105.png;188;test;,;image-keyboard-response;198;165469;0.0-4.0-1.7;true
2151;ImagesTennis/TL100.png;190;test;.;image-keyboard-response;200;168124;0.0-4.0-1.8;true
1539;ImagesDirect/VL100.png;190;test;.;image-keyboard-response;202;170165;0.0-4.0-1.9;true
909;ImagesTennis/TL102.5.png;188;test;,;image-keyboard-response;204;171581;0.0-4.0-1.10;true
968;ImagesTennis/TR92.5.png;188;test;,;image-keyboard-response;206;173061;0.0-4.0-1.11;true
746;ImagesDirect/VL92.5.png;190;test;.;image-keyboard-response;208;174309;0.0-4.0-1.12;true
1965;ImagesTennis/TR90.png;188;test;,;image-keyboard-response;210;176789;0.0-4.0-1.13;true
847;ImagesSoccer/VR97.5.png;190;test;,;image-keyboard-response;212;178140;0.0-4.0-1.14;false
1025;ImagesSoccer/VR92.5.png;190;test;,;image-keyboard-response;214;179668;0.0-4.0-1.15;false
702;ImagesSoccer/VR102.5.png;190;test;.;image-keyboard-response;216;180877;0.0-4.0-1.16;true
716;ImagesSoccer/VR110.png;190;test;.;image-keyboard-response;218;182108;0.0-4.0-1.17;true
778;ImagesDirect/VR110.png;190;test;.;image-keyboard-response;220;183388;0.0-4.0-1.18;true
1192;ImagesTennis/TR97.5.png;190;test;,;image-keyboard-response;222;185085;0.0-4.0-1.19;false
1280;ImagesSoccer/VR95.png;188;test;,;image-keyboard-response;224;186876;0.0-4.0-1.20;true
940;ImagesSoccer/VR100.png;190;test;.;image-keyboard-response;226;188332;0.0-4.0-1.21;true
772;ImagesDirect/VL105.png;188;test;,;image-keyboard-response;228;189612;0.0-4.0-1.22;true
633;ImagesSoccer/VR105.png;190;test;.;image-keyboard-response;230;190758;0.0-4.0-1.23;true
722;ImagesTennis/TR102.5.png;190;test;.;image-keyboard-response;232;191991;0.0-4.0-1.24;true
4334;ImagesDirect/VR97.5.png;190;test;,;image-keyboard-response;234;196828;0.0-4.0-1.25;false
1533;ImagesDirect/VL90.png;190;test;.;image-keyboard-response;236;198877;0.0-4.0-1.26;true
1339;ImagesDirect/VR102.5.png;190;test;.;image-keyboard-response;238;200732;0.0-4.0-1.27;true
843;ImagesSoccer/VL105.png;188;test;,;image-keyboard-response;240;202085;0.0-4.0-1.28;true
840;ImagesSoccer/VL95.png;188;test;.;image-keyboard-response;242;203428;0.0-4.0-1.29;false
676;ImagesSoccer/VL107.5.png;188;test;,;image-keyboard-response;244;204612;0.0-4.0-1.30;true
1830;ImagesTennis/TL90.png;190;test;.;image-keyboard-response;246;206958;0.0-4.0-1.31;true
799;ImagesTennis/TL107.5.png;188;test;,;image-keyboard-response;248;208262;0.0-4.0-1.32;true
919;ImagesDirect/VL97.5.png;188;test;.;image-keyboard-response;250;209694;0.0-4.0-1.33;false
859;ImagesDirect/VR95.png;188;test;,;image-keyboard-response;252;211068;0.0-4.0-1.34;true
771;ImagesDirect/VR92.5.png;188;test;,;image-keyboard-response;254;212341;0.0-4.0-1.35;true
1275;ImagesDirect/VR107.5.png;190;test;.;image-keyboard-response;256;214118;0.0-4.0-1.36;true
2358;ImagesTennis/TL110.png;188;test;,;image-keyboard-response;258;216988;0.0-4.0-1.37;true
1569;ImagesSoccer/VR90.png;188;test;,;image-keyboard-response;260;219060;0.0-4.0-1.38;true
802;ImagesSoccer/VL90.png;190;test;.;image-keyboard-response;262;220364;0.0-4.0-1.39;true
1039;ImagesDirect/VR100.png;188;test;.;image-keyboard-response;264;221916;0.0-4.0-1.40;false
1025;ImagesTennis/TR107.5.png;190;test;.;image-keyboard-response;266;223452;0.0-4.0-1.41;true
920;ImagesTennis/TR95.png;188;test;,;image-keyboard-response;268;224884;0.0-4.0-1.42;true
1154;ImagesDirect/VL110.png;188;test;,;image-keyboard-response;270;226548;0.0-4.0-1.43;true
1089;ImagesTennis/TL92.5.png;190;test;.;image-keyboard-response;272;228148;0.0-4.0-1.44;true
1015;ImagesTennis/TR105.png;188;test;.;image-keyboard-response;274;229676;0.0-4.0-1.45;false
636;ImagesTennis/TR100.png;188;test;.;image-keyboard-response;276;230828;0.0-4.0-1.46;false
1229;ImagesTennis/TL95.png;190;test;.;image-keyboard-response;278;232572;0.0-4.0-1.47;true
675;ImagesDirect/VL102.5.png;188;test;,;image-keyboard-response;280;233756;0.0-4.0-1.48;true
727;ImagesSoccer/VL97.5.png;190;test;.;image-keyboard-response;282;234988;0.0-4.0-1.49;true
1402;ImagesTennis/TR110.png;190;test;.;image-keyboard-response;284;236892;0.0-4.0-1.50;true
1001;ImagesDirect/VR90.png;188;test;,;image-keyboard-response;286;238405;0.0-4.0-1.51;true
851;ImagesDirect/VL95.png;188;test;.;image-keyboard-response;288;239772;0.0-4.0-1.52;false
828;ImagesTennis/TL97.5.png;188;test;.;image-keyboard-response;290;241108;0.0-4.0-1.53;false
680;ImagesTennis/TR95.png;188;test;,;image-keyboard-response;292;242292;0.0-4.0-1.54;true
724;ImagesDirect/VR107.5.png;190;test;.;image-keyboard-response;294;243526;0.0-4.0-1.55;true
1008;ImagesSoccer/VL95.png;188;test;.;image-keyboard-response;296;245045;0.0-4.0-1.56;false
634;ImagesTennis/TR100.png;188;test;.;image-keyboard-response;298;246180;0.0-4.0-1.57;false
593;ImagesTennis/TR90.png;188;test;,;image-keyboard-response;300;247284;0.0-4.0-1.58;true
775;ImagesTennis/TR110.png;190;test;.;image-keyboard-response;302;248572;0.0-4.0-1.59;true
773;ImagesDirect/VL95.png;188;test;.;image-keyboard-response;304;249852;0.0-4.0-1.60;false
821;ImagesDirect/VR100.png;190;test;.;image-keyboard-response;306;251180;0.0-4.0-1.61;true
706;ImagesSoccer/VL110.png;188;test;,;image-keyboard-response;308;252388;0.0-4.0-1.62;true
720;ImagesDirect/VL100.png;190;test;.;image-keyboard-response;310;253612;0.0-4.0-1.63;true
628;ImagesDirect/VR105.png;190;test;.;image-keyboard-response;312;254756;0.0-4.0-1.64;true
806;ImagesTennis/TL105.png;188;test;,;image-keyboard-response;314;256068;0.0-4.0-1.65;true
802;ImagesTennis/TR107.5.png;190;test;.;image-keyboard-response;316;257372;0.0-4.0-1.66;true
690;ImagesDirect/VL107.5.png;188;test;,;image-keyboard-response;318;258574;0.0-4.0-1.67;true
1347;ImagesSoccer/VR100.png;190;test;.;image-keyboard-response;320;260438;0.0-4.0-1.68;true
1378;ImagesSoccer/VL90.png;190;test;.;image-keyboard-response;322;262334;0.0-4.0-1.69;true
926;ImagesDirect/VL92.5.png;188;test;.;image-keyboard-response;324;263772;0.0-4.0-1.70;false
759;ImagesSoccer/VL107.5.png;188;test;,;image-keyboard-response;326;265036;0.0-4.0-1.71;true
762;ImagesTennis/TL107.5.png;188;test;,;image-keyboard-response;328;266300;0.0-4.0-1.72;true
2865;ImagesDirect/VR92.5.png;188;test;,;image-keyboard-response;330;269676;0.0-4.0-1.73;true
1466;ImagesDirect/VR102.5.png;190;test;.;image-keyboard-response;332;271644;0.0-4.0-1.74;true
780;ImagesTennis/TL102.5.png;188;test;,;image-keyboard-response;334;272940;0.0-4.0-1.75;true
895;ImagesTennis/TL110.png;188;test;,;image-keyboard-response;336;274340;0.0-4.0-1.76;true
1359;ImagesDirect/VL90.png;190;test;.;image-keyboard-response;338;276204;0.0-4.0-1.77;true
954;ImagesTennis/TR97.5.png;188;test;,;image-keyboard-response;340;277660;0.0-4.0-1.78;true
788;ImagesDirect/VR95.png;190;test;,;image-keyboard-response;342;278964;0.0-4.0-1.79;false
920;ImagesTennis/TL97.5.png;188;test;.;image-keyboard-response;344;280396;0.0-4.0-1.80;false
882;ImagesTennis/TL95.png;190;test;.;image-keyboard-response;346;281780;0.0-4.0-1.81;true
1327;ImagesDirect/VL102.5.png;188;test;,;image-keyboard-response;348;283620;0.0-4.0-1.82;true
1118;ImagesSoccer/VR97.5.png;190;test;,;image-keyboard-response;350;285244;0.0-4.0-1.83;false
1229;ImagesTennis/TR92.5.png;188;test;,;image-keyboard-response;352;286988;0.0-4.0-1.84;true
1075;ImagesTennis/TL92.5.png;188;test;.;image-keyboard-response;354;288564;0.0-4.0-1.85;false
757;ImagesSoccer/VR102.5.png;190;test;.;image-keyboard-response;356;289836;0.0-4.0-1.86;true
740;ImagesDirect/VL97.5.png;188;test;.;image-keyboard-response;358;291084;0.0-4.0-1.87;false
1978;ImagesTennis/TR105.png;190;test;.;image-keyboard-response;360;293564;0.0-4.0-1.88;true
706;ImagesDirect/VL105.png;188;test;,;image-keyboard-response;362;294780;0.0-4.0-1.89;true
606;ImagesSoccer/VL105.png;188;test;,;image-keyboard-response;364;295900;0.0-4.0-1.90;true
1233;ImagesSoccer/VL92.5.png;190;test;.;image-keyboard-response;366;297644;0.0-4.0-1.91;true
876;ImagesSoccer/VL97.5.png;188;test;.;image-keyboard-response;368;299036;0.0-4.0-1.92;false
1266;ImagesDirect/VR110.png;190;test;.;image-keyboard-response;370;300804;0.0-4.0-1.93;true
935;ImagesSoccer/VL100.png;188;test;.;image-keyboard-response;372;302244;0.0-4.0-1.94;false
1215;ImagesDirect/VR97.5.png;188;test;,;image-keyboard-response;374;303964;0.0-4.0-1.95;true
687;ImagesSoccer/VR90.png;190;test;,;image-keyboard-response;376;305164;0.0-4.0-1.96;false
1087;ImagesTennis/TL90.png;190;test;.;image-keyboard-response;378;306764;0.0-4.0-1.97;true
1143;ImagesSoccer/VL102.5.png;188;test;,;image-keyboard-response;380;308420;0.0-4.0-1.98;true
819;ImagesSoccer/VR110.png;190;test;.;image-keyboard-response;382;309740;0.0-4.0-1.99;true
1304;ImagesSoccer/VR107.5.png;190;test;.;image-keyboard-response;384;311558;0.0-4.0-1.100;true
1223;ImagesSoccer/VR92.5.png;188;test;,;image-keyboard-response;386;313286;0.0-4.0-1.101;true
1557;ImagesDirect/VR90.png;188;test;,;image-keyboard-response;388;315350;0.0-4.0-1.102;true
722;ImagesTennis/TR102.5.png;190;test;.;image-keyboard-response;390;316580;0.0-4.0-1.103;true
852;ImagesSoccer/VR95.png;188;test;,;image-keyboard-response;392;317948;0.0-4.0-1.104;true
600;ImagesDirect/VL110.png;188;test;,;image-keyboard-response;394;319062;0.0-4.0-1.105;true
792;ImagesSoccer/VR105.png;190;test;.;image-keyboard-response;396;320356;0.0-4.0-1.106;true
661;ImagesTennis/TL100.png;188;test;.;image-keyboard-response;398;321524;0.0-4.0-1.107;false
663;ImagesSoccer/VR100.png;190;test;.;image-keyboard-response;400;322700;0.0-4.0-1.108;true
993;ImagesTennis/TR92.5.png;188;test;,;image-keyboard-response;402;324204;0.0-4.0-1.109;true
1022;ImagesSoccer/VL105.png;188;test;,;image-keyboard-response;404;325740;0.0-4.0-1.110;true
840;ImagesDirect/VL92.5.png;190;test;.;image-keyboard-response;406;327084;0.0-4.0-1.111;true
1514;ImagesTennis/TR110.png;190;test;.;image-keyboard-response;408;329100;0.0-4.0-1.112;true
1313;ImagesDirect/VR95.png;188;test;,;image-keyboard-response;410;330917;0.0-4.0-1.113;true
801;ImagesTennis/TL92.5.png;190;test;.;image-keyboard-response;412;332228;0.0-4.0-1.114;true
908;ImagesDirect/VR92.5.png;188;test;,;image-keyboard-response;414;333644;0.0-4.0-1.115;true
763;ImagesDirect/VL107.5.png;188;test;,;image-keyboard-response;416;334908;0.0-4.0-1.116;true
943;ImagesDirect/VR90.png;188;test;,;image-keyboard-response;418;336356;0.0-4.0-1.117;true
668;ImagesDirect/VR110.png;190;test;.;image-keyboard-response;420;337532;0.0-4.0-1.118;true
909;ImagesTennis/TL105.png;188;test;,;image-keyboard-response;422;338948;0.0-4.0-1.119;true
1289;ImagesDirect/VR97.5.png;188;test;,;image-keyboard-response;424;340748;0.0-4.0-1.120;true
870;ImagesTennis/TR90.png;188;test;,;image-keyboard-response;426;342124;0.0-4.0-1.121;true
1515;ImagesSoccer/VR105.png;190;test;.;image-keyboard-response;428;344140;0.0-4.0-1.122;true
3027;ImagesSoccer/VL95.png;190;test;.;image-keyboard-response;430;347668;0.0-4.0-1.123;true
1090;ImagesTennis/TL97.5.png;190;test;.;image-keyboard-response;432;349268;0.0-4.0-1.124;true
1666;ImagesTennis/TL102.5.png;190;test;,;image-keyboard-response;434;351444;0.0-4.0-1.125;false
1041;ImagesDirect/VR107.5.png;188;test;.;image-keyboard-response;436;352996;0.0-4.0-1.126;false
914;ImagesDirect/VL100.png;188;test;.;image-keyboard-response;438;354412;0.0-4.0-1.127;false
877;ImagesTennis/TL110.png;188;test;,;image-keyboard-response;440;355804;0.0-4.0-1.128;true
677;ImagesTennis/TL90.png;190;test;.;image-keyboard-response;442;356988;0.0-4.0-1.129;true
2787;ImagesDirect/VR105.png;190;test;.;image-keyboard-response;444;360276;0.0-4.0-1.130;true
1105;ImagesTennis/TR107.5.png;190;test;.;image-keyboard-response;446;361892;0.0-4.0-1.131;true
794;ImagesSoccer/VR102.5.png;190;test;.;image-keyboard-response;448;363190;0.0-4.0-1.132;true
648;ImagesDirect/VR102.5.png;190;test;.;image-keyboard-response;450;364341;0.0-4.0-1.133;true
1810;ImagesTennis/TR102.5.png;190;test;.;image-keyboard-response;452;366669;0.0-4.0-1.134;true
971;ImagesTennis/TR100.png;188;test;.;image-keyboard-response;454;368148;0.0-4.0-1.135;false
927;ImagesSoccer/VR97.5.png;190;test;,;image-keyboard-response;456;369589;0.0-4.0-1.136;false
1421;ImagesSoccer/VL90.png;190;test;.;image-keyboard-response;458;371524;0.0-4.0-1.137;true
965;ImagesSoccer/VR110.png;190;test;.;image-keyboard-response;460;372996;0.0-4.0-1.138;true
1635;ImagesTennis/TR105.png;190;test;.;image-keyboard-response;462;375132;0.0-4.0-1.139;true
1350;ImagesDirect/VR100.png;188;test;.;image-keyboard-response;464;376996;0.0-4.0-1.140;false
914;ImagesTennis/TL95.png;188;test;.;image-keyboard-response;466;378411;0.0-4.0-1.141;false
891;ImagesTennis/TL100.png;188;test;.;image-keyboard-response;468;379812;0.0-4.0-1.142;false
1163;ImagesDirect/VL90.png;190;test;.;image-keyboard-response;470;381491;0.0-4.0-1.143;true
713;ImagesDirect/VL110.png;188;test;,;image-keyboard-response;472;382715;0.0-4.0-1.144;true
1240;ImagesTennis/TR95.png;188;test;,;image-keyboard-response;474;384467;0.0-4.0-1.145;true
784;ImagesTennis/TL107.5.png;188;test;,;image-keyboard-response;476;385764;0.0-4.0-1.146;true
1718;ImagesDirect/VL97.5.png;188;test;.;image-keyboard-response;478;387996;0.0-4.0-1.147;false
642;ImagesSoccer/VL102.5.png;188;test;,;image-keyboard-response;480;389139;0.0-4.0-1.148;true
789;ImagesSoccer/VR90.png;188;test;,;image-keyboard-response;482;390435;0.0-4.0-1.149;true
1010;ImagesSoccer/VR92.5.png;188;test;,;image-keyboard-response;484;391955;0.0-4.0-1.150;true
951;ImagesSoccer/VL100.png;188;test;.;image-keyboard-response;486;393412;0.0-4.0-1.151;false
1190;ImagesTennis/TR97.5.png;190;test;,;image-keyboard-response;488;395115;0.0-4.0-1.152;false
648;ImagesDirect/VL105.png;188;test;,;image-keyboard-response;490;396276;0.0-4.0-1.153;true
784;ImagesSoccer/VL92.5.png;190;test;.;image-keyboard-response;492;397571;0.0-4.0-1.154;true
789;ImagesDirect/VL102.5.png;188;test;,;image-keyboard-response;494;398875;0.0-4.0-1.155;true
2129;ImagesDirect/VL95.png;190;test;.;image-keyboard-response;496;401507;0.0-4.0-1.156;true
696;ImagesSoccer/VL110.png;188;test;,;image-keyboard-response;498;402707;0.0-4.0-1.157;true
751;ImagesSoccer/VR107.5.png;190;test;.;image-keyboard-response;500;403963;0.0-4.0-1.158;true
774;ImagesSoccer/VL107.5.png;188;test;,;image-keyboard-response;502;405251;0.0-4.0-1.159;true
714;ImagesSoccer/VL97.5.png;188;test;.;image-keyboard-response;504;406475;0.0-4.0-1.160;false
704;ImagesSoccer/VR95.png;190;test;,;image-keyboard-response;506;407691;0.0-4.0-1.161;false
789;ImagesTennis/TR90.png;188;test;,;image-keyboard-response;508;408995;0.0-4.0-1.162;true
703;ImagesTennis/TR92.5.png;190;test;,;image-keyboard-response;510;410203;0.0-4.0-1.163;false
888;ImagesTennis/TR97.5.png;188;test;,;image-keyboard-response;512;411597;0.0-4.0-1.164;true
557;ImagesSoccer/VR107.5.png;190;test;.;image-keyboard-response;514;412659;0.0-4.0-1.165;true
755;ImagesDirect/VL100.png;188;test;.;image-keyboard-response;516;413923;0.0-4.0-1.166;false
524;ImagesSoccer/VL100.png;188;test;.;image-keyboard-response;518;414955;0.0-4.0-1.167;false
663;ImagesTennis/TL107.5.png;188;test;,;image-keyboard-response;520;416123;0.0-4.0-1.168;true
1050;ImagesDirect/VL92.5.png;190;test;.;image-keyboard-response;522;417678;0.0-4.0-1.169;true
834;ImagesDirect/VR95.png;190;test;,;image-keyboard-response;524;419029;0.0-4.0-1.170;false
816;ImagesTennis/TL95.png;188;test;.;image-keyboard-response;526;420349;0.0-4.0-1.171;false
848;ImagesSoccer/VR102.5.png;190;test;.;image-keyboard-response;528;421707;0.0-4.0-1.172;true
992;ImagesTennis/TR102.5.png;190;test;.;image-keyboard-response;530;423211;0.0-4.0-1.173;true
1362;ImagesDirect/VR100.png;190;test;.;image-keyboard-response;532;425083;0.0-4.0-1.174;true
1330;ImagesTennis/TR107.5.png;190;test;.;image-keyboard-response;534;426915;0.0-4.0-1.175;true
687;ImagesDirect/VR102.5.png;190;test;.;image-keyboard-response;536;428115;0.0-4.0-1.176;true
655;ImagesSoccer/VL107.5.png;188;test;,;image-keyboard-response;538;429283;0.0-4.0-1.177;true
1271;ImagesSoccer/VL97.5.png;190;test;.;image-keyboard-response;540;431067;0.0-4.0-1.178;true
686;ImagesSoccer/VR97.5.png;188;test;,;image-keyboard-response;542;432255;0.0-4.0-1.179;true
853;ImagesSoccer/VL90.png;190;test;.;image-keyboard-response;544;433615;0.0-4.0-1.180;true
682;ImagesTennis/TR100.png;188;test;.;image-keyboard-response;546;434807;0.0-4.0-1.181;false
723;ImagesTennis/TL102.5.png;188;test;,;image-keyboard-response;548;436039;0.0-4.0-1.182;true
761;ImagesSoccer/VR110.png;190;test;.;image-keyboard-response;550;437311;0.0-4.0-1.183;true
880;ImagesDirect/VR92.5.png;188;test;,;image-keyboard-response;552;438704;0.0-4.0-1.184;true
636;ImagesDirect/VL102.5.png;188;test;,;image-keyboard-response;554;439847;0.0-4.0-1.185;true
930;ImagesDirect/VR97.5.png;188;test;,;image-keyboard-response;556;441279;0.0-4.0-1.186;true
762;ImagesTennis/TL92.5.png;190;test;.;image-keyboard-response;558;442551;0.0-4.0-1.187;true
853;ImagesTennis/TL105.png;188;test;,;image-keyboard-response;560;443919;0.0-4.0-1.188;true
806;ImagesTennis/TL97.5.png;188;test;.;image-keyboard-response;562;445231;0.0-4.0-1.189;false
1085;ImagesSoccer/VL92.5.png;190;test;.;image-keyboard-response;564;446831;0.0-4.0-1.190;true
888;ImagesDirect/VR107.5.png;190;test;.;image-keyboard-response;566;448223;0.0-4.0-1.191;true
1180;ImagesSoccer/VR100.png;190;test;.;image-keyboard-response;568;449906;0.0-4.0-1.192;true
1831;ImagesDirect/VL95.png;188;test;.;image-keyboard-response;570;452247;0.0-4.0-1.193;false
871;ImagesSoccer/VR90.png;190;test;,;image-keyboard-response;572;453631;0.0-4.0-1.194;false
649;ImagesDirect/VR110.png;190;test;.;image-keyboard-response;574;454783;0.0-4.0-1.195;true
907;ImagesTennis/TL90.png;190;test;.;image-keyboard-response;576;456191;0.0-4.0-1.196;true
617;ImagesDirect/VL97.5.png;188;test;.;image-keyboard-response;578;457311;0.0-4.0-1.197;false
727;ImagesSoccer/VL95.png;188;test;.;image-keyboard-response;580;458543;0.0-4.0-1.198;false
742;ImagesDirect/VR90.png;188;test;,;image-keyboard-response;582;459791;0.0-4.0-1.199;true
677;ImagesSoccer/VL105.png;188;test;,;image-keyboard-response;584;460978;0.0-4.0-1.200;true
608;ImagesSoccer/VL110.png;188;test;,;image-keyboard-response;586;462089;0.0-4.0-1.201;true
1016;ImagesTennis/TR95.png;188;test;,;image-keyboard-response;588;463607;0.0-4.0-1.202;true
988;ImagesSoccer/VL102.5.png;188;test;,;image-keyboard-response;590;465103;0.0-4.0-1.203;true
920;ImagesSoccer/VR92.5.png;188;test;,;image-keyboard-response;592;466536;0.0-4.0-1.204;true
832;ImagesTennis/TL100.png;190;test;.;image-keyboard-response;594;467873;0.0-4.0-1.205;true
913;ImagesSoccer/VR95.png;188;test;,;image-keyboard-response;596;469297;0.0-4.0-1.206;true
743;ImagesDirect/VR105.png;190;test;.;image-keyboard-response;598;470545;0.0-4.0-1.207;true
2329;ImagesDirect/VL90.png;190;test;.;image-keyboard-response;600;473383;0.0-4.0-1.208;true
1611;ImagesTennis/TR105.png;190;test;.;image-keyboard-response;602;475511;0.0-4.0-1.209;true
703;ImagesDirect/VL107.5.png;188;test;,;image-keyboard-response;604;476719;0.0-4.0-1.210;true
693;ImagesSoccer/VR105.png;190;test;.;image-keyboard-response;606;477927;0.0-4.0-1.211;true
695;ImagesDirect/VL110.png;188;test;,;image-keyboard-response;608;479127;0.0-4.0-1.212;true
568;ImagesDirect/VL105.png;188;test;,;image-keyboard-response;610;480199;0.0-4.0-1.213;true
1090;ImagesTennis/TL110.png;188;test;,;image-keyboard-response;612;481791;0.0-4.0-1.214;true
595;ImagesTennis/TR110.png;190;test;.;image-keyboard-response;614;482895;0.0-4.0-1.215;true
605;ImagesTennis/TL102.5.png;188;test;,;image-keyboard-response;616;484007;0.0-4.0-1.216;true
1017;ImagesDirect/VR90.png;188;test;,;image-keyboard-response;618;485527;0.0-4.0-1.217;true
1581;ImagesDirect/VL97.5.png;188;test;.;image-keyboard-response;620;487615;0.0-4.0-1.218;false
1874;ImagesTennis/TR95.png;188;test;,;image-keyboard-response;622;489991;0.0-4.0-1.219;true
1433;ImagesDirect/VR95.png;190;test;,;image-keyboard-response;624;491935;0.0-4.0-1.220;false
725;ImagesDirect/VR107.5.png;190;test;.;image-keyboard-response;626;493187;0.0-4.0-1.221;true
797;ImagesDirect/VR100.png;190;test;.;image-keyboard-response;628;494499;0.0-4.0-1.222;true
753;ImagesSoccer/VR110.png;190;test;.;image-keyboard-response;630;495755;0.0-4.0-1.223;true
701;ImagesSoccer/VL100.png;188;test;.;image-keyboard-response;632;496963;0.0-4.0-1.224;false
876;ImagesSoccer/VR100.png;190;test;.;image-keyboard-response;634;498355;0.0-4.0-1.225;true
1433;ImagesTennis/TL110.png;188;test;,;image-keyboard-response;636;500291;0.0-4.0-1.226;true
3633;ImagesTennis/TL97.5.png;190;test;.;image-keyboard-response;638;504427;0.0-4.0-1.227;true
1686;ImagesSoccer/VR102.5.png;190;test;.;image-keyboard-response;640;506619;0.0-4.0-1.228;true
1050;ImagesDirect/VL102.5.png;188;test;,;image-keyboard-response;642;508179;0.0-4.0-1.229;true
1194;ImagesDirect/VL95.png;188;test;.;image-keyboard-response;644;509883;0.0-4.0-1.230;false
1263;ImagesTennis/TL90.png;190;test;.;image-keyboard-response;646;511659;0.0-4.0-1.231;true
832;ImagesTennis/TR110.png;190;test;.;image-keyboard-response;648;512995;0.0-4.0-1.232;true
2201;ImagesSoccer/VL97.5.png;188;test;.;image-keyboard-response;650;515699;0.0-4.0-1.233;false
848;ImagesTennis/TR100.png;190;test;.;image-keyboard-response;652;517061;0.0-4.0-1.234;true
496;ImagesTennis/TL95.png;188;test;.;image-keyboard-response;654;518060;0.0-4.0-1.235;false
641;ImagesTennis/TR92.5.png;188;test;,;image-keyboard-response;656;519204;0.0-4.0-1.236;true
606;ImagesSoccer/VR107.5.png;190;test;.;image-keyboard-response;658;520315;0.0-4.0-1.237;true
753;ImagesTennis/TR105.png;190;test;.;image-keyboard-response;660;521581;0.0-4.0-1.238;true
924;ImagesDirect/VR97.5.png;190;test;,;image-keyboard-response;662;523020;0.0-4.0-1.239;false
726;ImagesSoccer/VL110.png;188;test;,;image-keyboard-response;664;524251;0.0-4.0-1.240;true
766;ImagesSoccer/VL95.png;188;test;.;image-keyboard-response;666;525523;0.0-4.0-1.241;false
721;ImagesTennis/TL107.5.png;188;test;,;image-keyboard-response;668;526747;0.0-4.0-1.242;true
677;ImagesDirect/VL110.png;188;test;,;image-keyboard-response;670;527939;0.0-4.0-1.243;true
549;ImagesDirect/VL90.png;190;test;.;image-keyboard-response;672;528995;0.0-4.0-1.244;true
978;ImagesDirect/VL92.5.png;188;test;.;image-keyboard-response;674;530475;0.0-4.0-1.245;false
1038;ImagesSoccer/VR90.png;190;test;,;image-keyboard-response;676;532027;0.0-4.0-1.246;false
1050;ImagesDirect/VL100.png;188;test;.;image-keyboard-response;678;533579;0.0-4.0-1.247;false
956;ImagesSoccer/VL107.5.png;188;test;,;image-keyboard-response;680;535051;0.0-4.0-1.248;true
1074;ImagesDirect/VL107.5.png;188;test;,;image-keyboard-response;682;536635;0.0-4.0-1.249;true
529;ImagesSoccer/VR105.png;190;test;.;image-keyboard-response;684;537675;0.0-4.0-1.250;true
742;ImagesTennis/TR107.5.png;190;test;.;image-keyboard-response;686;538923;0.0-4.0-1.251;true
849;ImagesDirect/VR102.5.png;190;test;.;image-keyboard-response;688;540275;0.0-4.0-1.252;true
712;ImagesSoccer/VR97.5.png;190;test;,;image-keyboard-response;690;541491;0.0-4.0-1.253;false
943;ImagesTennis/TR102.5.png;190;test;.;image-keyboard-response;692;542939;0.0-4.0-1.254;true
1023;ImagesTennis/TL100.png;188;test;.;image-keyboard-response;694;544466;0.0-4.0-1.255;false
600;ImagesTennis/TL92.5.png;188;test;.;image-keyboard-response;696;545579;0.0-4.0-1.256;false
741;ImagesSoccer/VR95.png;190;test;,;image-keyboard-response;698;546827;0.0-4.0-1.257;false
657;ImagesTennis/TR90.png;188;test;,;image-keyboard-response;700;547987;0.0-4.0-1.258;true
682;ImagesSoccer/VL102.5.png;188;test;,;image-keyboard-response;702;549171;0.0-4.0-1.259;true
1101;ImagesDirect/VR92.5.png;188;test;,;image-keyboard-response;704;550787;0.0-4.0-1.260;true
603;ImagesDirect/VR110.png;190;test;.;image-keyboard-response;706;551899;0.0-4.0-1.261;true
658;ImagesSoccer/VL105.png;188;test;,;image-keyboard-response;708;553070;0.0-4.0-1.262;true
530;ImagesTennis/TR97.5.png;190;test;,;image-keyboard-response;710;554102;0.0-4.0-1.263;false
1082;ImagesSoccer/VR92.5.png;190;test;,;image-keyboard-response;712;555686;0.0-4.0-1.264;false
613;ImagesTennis/TL105.png;188;test;,;image-keyboard-response;714;556806;0.0-4.0-1.265;true
1313;ImagesSoccer/VL92.5.png;190;test;.;image-keyboard-response;716;558622;0.0-4.0-1.266;true
1256;ImagesSoccer/VL90.png;190;test;.;image-keyboard-response;718;560382;0.0-4.0-1.267;true
3120;ImagesDirect/VR105.png;190;test;.;image-keyboard-response;720;564014;0.0-4.0-1.268;true
762;ImagesDirect/VL105.png;188;test;,;image-keyboard-response;722;565278;0.0-4.0-1.269;true
