"rt","stimulus","key_press","test_part","correct_response","trial_type","trial_index","time_elapsed","internal_node_id","correct"
"4475","ImagesCoins/10L102.5.png","188","test",",","image-keyboard-response","4","44185","0.0-3.0-1.0","true"
"1335","ImagesCoins/10L97.5.png","190","test",".","image-keyboard-response","6","46027","0.0-3.0-1.1","true"
"1293","ImagesCoins/10L92.5.png","190","test",".","image-keyboard-response","8","47825","0.0-3.0-1.2","true"
"1923","ImagesCoins/10R97.5.png","190","test",",","image-keyboard-response","10","50265","0.0-3.0-1.3","false"
"1138","ImagesCoins/10R92.5.png","188","test",",","image-keyboard-response","12","51908","0.0-3.0-1.4","true"
"1377","ImagesCoins/10L107.5.png","188","test",",","image-keyboard-response","14","53800","0.0-3.0-1.5","true"
"1896","ImagesCoins/10L105.png","188","test",",","image-keyboard-response","16","56208","0.0-3.0-1.6","true"
"1135","ImagesCoins/10R100.png","190","test",".","image-keyboard-response","18","57855","0.0-3.0-1.7","true"
"1289","ImagesCoins/10R102.5.png","190","test",".","image-keyboard-response","20","59663","0.0-3.0-1.8","true"
"818","ImagesCoins/10L110.png","188","test",",","image-keyboard-response","22","60989","0.0-3.0-1.9","true"
"1210","ImagesCoins/10R95.png","188","test",",","image-keyboard-response","24","62713","0.0-3.0-1.10","true"
"944","ImagesCoins/10L90.png","190","test",".","image-keyboard-response","26","64166","0.0-3.0-1.11","true"
"1689","ImagesCoins/10R90.png","188","test",",","image-keyboard-response","28","66359","0.0-3.0-1.12","true"
"1018","ImagesCoins/10R107.5.png","190","test",".","image-keyboard-response","30","67886","0.0-3.0-1.13","true"
"3104","ImagesCoins/10L100.png","190","test",".","image-keyboard-response","32","71492","0.0-3.0-1.14","true"
"1083","ImagesCoins/10R110.png","190","test",".","image-keyboard-response","34","73087","0.0-3.0-1.15","true"
"2017","ImagesCoins/10L95.png","190","test",".","image-keyboard-response","36","75621","0.0-3.0-1.16","true"
"1608","ImagesCoins/10R105.png","190","test",".","image-keyboard-response","38","77731","0.0-3.0-1.17","true"
"3006","ImagesCoins/10L92.5.png","190","test",".","image-keyboard-response","40","81243","0.0-3.0-1.18","true"
"1894","ImagesCoins/10L97.5.png","190","test",".","image-keyboard-response","42","83650","0.0-3.0-1.19","true"
"3005","ImagesCoins/10R97.5.png","188","test",",","image-keyboard-response","44","87160","0.0-3.0-1.20","true"
"5124","ImagesCoins/10R102.5.png","188","test",".","image-keyboard-response","46","92799","0.0-3.0-1.21","false"
"1707","ImagesCoins/10R92.5.png","188","test",",","image-keyboard-response","48","95013","0.0-3.0-1.22","true"
"1173","ImagesCoins/10L90.png","190","test",".","image-keyboard-response","50","96690","0.0-3.0-1.23","true"
"1006","ImagesCoins/10L105.png","188","test",",","image-keyboard-response","52","98207","0.0-3.0-1.24","true"
"1982","ImagesCoins/10R95.png","188","test",",","image-keyboard-response","54","100700","0.0-3.0-1.25","true"
"2037","ImagesCoins/10R100.png","188","test",".","image-keyboard-response","56","103256","0.0-3.0-1.26","false"
"1242","ImagesCoins/10L95.png","190","test",".","image-keyboard-response","58","105006","0.0-3.0-1.27","true"
"1748","ImagesCoins/10L102.5.png","188","test",",","image-keyboard-response","60","107266","0.0-3.0-1.28","true"
"921","ImagesCoins/10L110.png","188","test",",","image-keyboard-response","62","108707","0.0-3.0-1.29","true"
"4632","ImagesCoins/10L100.png","190","test",".","image-keyboard-response","64","113849","0.0-3.0-1.30","true"
"2384","ImagesCoins/10R105.png","190","test",".","image-keyboard-response","66","116739","0.0-3.0-1.31","true"
"849","ImagesCoins/10L107.5.png","188","test",",","image-keyboard-response","68","118097","0.0-3.0-1.32","true"
"1304","ImagesCoins/10R110.png","190","test",".","image-keyboard-response","70","119929","0.0-3.0-1.33","true"
"1167","ImagesCoins/10R107.5.png","190","test",".","image-keyboard-response","72","121600","0.0-3.0-1.34","true"
"1123","ImagesCoins/10R90.png","188","test",",","image-keyboard-response","74","123227","0.0-3.0-1.35","true"
"2711","ImagesCoins/10L95.png","190","test",".","image-keyboard-response","76","126443","0.0-3.0-1.36","true"
"1581","ImagesCoins/10L102.5.png","188","test",",","image-keyboard-response","78","128538","0.0-3.0-1.37","true"
"1972","ImagesCoins/10R92.5.png","188","test",",","image-keyboard-response","80","131013","0.0-3.0-1.38","true"
"1335","ImagesCoins/10R90.png","188","test",",","image-keyboard-response","82","132859","0.0-3.0-1.39","true"
"4407","ImagesCoins/10L100.png","190","test",".","image-keyboard-response","84","137781","0.0-3.0-1.40","true"
"757","ImagesCoins/10L90.png","190","test",".","image-keyboard-response","86","139041","0.0-3.0-1.41","true"
"1028","ImagesCoins/10R102.5.png","190","test",".","image-keyboard-response","88","140584","0.0-3.0-1.42","true"
"824","ImagesCoins/10L105.png","188","test",",","image-keyboard-response","90","141914","0.0-3.0-1.43","true"
"2243","ImagesCoins/10L92.5.png","190","test",".","image-keyboard-response","92","144670","0.0-3.0-1.44","true"
"784","ImagesCoins/10R107.5.png","190","test",".","image-keyboard-response","94","145957","0.0-3.0-1.45","true"
"1754","ImagesCoins/10R105.png","190","test",".","image-keyboard-response","96","148226","0.0-3.0-1.46","true"
"9125","ImagesCoins/10R95.png","188","test",",","image-keyboard-response","98","157864","0.0-3.0-1.47","true"
"1047","ImagesCoins/10L107.5.png","188","test",",","image-keyboard-response","100","159418","0.0-3.0-1.48","true"
"3339","ImagesCoins/10L97.5.png","190","test",".","image-keyboard-response","102","163261","0.0-3.0-1.49","true"
"736","ImagesCoins/10R110.png","190","test",".","image-keyboard-response","104","164505","0.0-3.0-1.50","true"
"2350","ImagesCoins/10R100.png","190","test",".","image-keyboard-response","106","167370","0.0-3.0-1.51","true"
"2010","ImagesCoins/10L110.png","188","test",",","image-keyboard-response","108","169891","0.0-3.0-1.52","true"
"7748","ImagesCoins/10R97.5.png","190","test",",","image-keyboard-response","110","178151","0.0-3.0-1.53","false"
"2099","ImagesCoins/10L102.5.png","188","test",",","image-keyboard-response","112","180752","0.0-3.0-1.54","true"
"6033","ImagesCoins/10L97.5.png","190","test",".","image-keyboard-response","114","187301","0.0-3.0-1.55","true"
"1312","ImagesCoins/10R97.5.png","188","test",",","image-keyboard-response","116","189124","0.0-3.0-1.56","true"
"3219","ImagesCoins/10L95.png","190","test",".","image-keyboard-response","118","192848","0.0-3.0-1.57","true"
"899","ImagesCoins/10R92.5.png","188","test",",","image-keyboard-response","120","194262","0.0-3.0-1.58","true"
"2203","ImagesCoins/10L107.5.png","188","test",",","image-keyboard-response","122","196974","0.0-3.0-1.59","true"
"5933","ImagesCoins/10L100.png","190","test",".","image-keyboard-response","124","203412","0.0-3.0-1.60","true"
"5381","ImagesCoins/10L105.png","188","test",",","image-keyboard-response","126","209296","0.0-3.0-1.61","true"
"3574","ImagesCoins/10R95.png","188","test",",","image-keyboard-response","128","213384","0.0-3.0-1.62","true"
"1103","ImagesCoins/10R102.5.png","190","test",".","image-keyboard-response","130","214991","0.0-3.0-1.63","true"
"926","ImagesCoins/10L90.png","190","test",".","image-keyboard-response","132","216419","0.0-3.0-1.64","true"
"872","ImagesCoins/10L110.png","188","test",",","image-keyboard-response","134","217794","0.0-3.0-1.65","true"
"709","ImagesCoins/10R110.png","190","test",".","image-keyboard-response","136","219017","0.0-3.0-1.66","true"
"958","ImagesCoins/10R107.5.png","190","test",".","image-keyboard-response","138","220490","0.0-3.0-1.67","true"
"1054","ImagesCoins/10R105.png","190","test",".","image-keyboard-response","140","222045","0.0-3.0-1.68","true"
"4134","ImagesCoins/10L92.5.png","190","test",".","image-keyboard-response","142","226692","0.0-3.0-1.69","true"
"1380","ImagesCoins/10R90.png","188","test",",","image-keyboard-response","144","228589","0.0-3.0-1.70","true"
"3273","ImagesCoins/10R100.png","190","test",".","image-keyboard-response","146","232365","0.0-3.0-1.71","true"
"4849","ImagesCoins/10L97.5.png","190","test",".","image-keyboard-response","148","237722","0.0-3.0-1.72","true"
"954","ImagesCoins/10R107.5.png","190","test",".","image-keyboard-response","150","239194","0.0-3.0-1.73","true"
"1040","ImagesCoins/10L92.5.png","190","test",".","image-keyboard-response","152","240746","0.0-3.0-1.74","true"
"1050","ImagesCoins/10R110.png","190","test",".","image-keyboard-response","154","242307","0.0-3.0-1.75","true"
"999","ImagesCoins/10R95.png","188","test",",","image-keyboard-response","156","243810","0.0-3.0-1.76","true"
"1047","ImagesCoins/10L102.5.png","188","test",",","image-keyboard-response","158","245370","0.0-3.0-1.77","true"
"1686","ImagesCoins/10L95.png","190","test",".","image-keyboard-response","160","247559","0.0-3.0-1.78","true"
"2251","ImagesCoins/10R97.5.png","188","test",",","image-keyboard-response","162","250315","0.0-3.0-1.79","true"
"2600","ImagesCoins/10R102.5.png","190","test",".","image-keyboard-response","164","253428","0.0-3.0-1.80","true"
"3047","ImagesCoins/10R105.png","190","test",".","image-keyboard-response","166","256992","0.0-3.0-1.81","true"
"1065","ImagesCoins/10R90.png","188","test",",","image-keyboard-response","168","258561","0.0-3.0-1.82","true"
"796","ImagesCoins/10L110.png","188","test",",","image-keyboard-response","170","259874","0.0-3.0-1.83","true"
"1912","ImagesCoins/10R92.5.png","188","test",",","image-keyboard-response","172","262292","0.0-3.0-1.84","true"
"9434","ImagesCoins/10L100.png","190","test",".","image-keyboard-response","174","272232","0.0-3.0-1.85","true"
"1038","ImagesCoins/10L90.png","190","test",".","image-keyboard-response","176","273786","0.0-3.0-1.86","true"
"1195","ImagesCoins/10L107.5.png","188","test",",","image-keyboard-response","178","275491","0.0-3.0-1.87","true"
"10878","ImagesCoins/10R100.png","188","test",".","image-keyboard-response","180","286874","0.0-3.0-1.88","false"
"976","ImagesCoins/10L105.png","188","test",",","image-keyboard-response","182","288367","0.0-3.0-1.89","true"
"7149","ImagesDirect/VR90.png","188","test",",","image-keyboard-response","184","296026","0.0-4.0-1.0","true"
"1970","ImagesSoccer/VR107.5.png","190","test",".","image-keyboard-response","186","298511","0.0-4.0-1.1","true"
"6863","ImagesSoccer/VL95.png","188","test",".","image-keyboard-response","188","305887","0.0-4.0-1.2","false"
"1414","ImagesDirect/VL110.png","188","test",",","image-keyboard-response","190","307805","0.0-4.0-1.3","true"
"2662","ImagesSoccer/VR102.5.png","190","test",".","image-keyboard-response","192","310970","0.0-4.0-1.4","true"
"2989","ImagesSoccer/VL105.png","188","test",",","image-keyboard-response","194","314475","0.0-4.0-1.5","true"
"1550","ImagesDirect/VL92.5.png","190","test",".","image-keyboard-response","196","316544","0.0-4.0-1.6","true"
"2376","ImagesSoccer/VR100.png","190","test",".","image-keyboard-response","198","319435","0.0-4.0-1.7","true"
"6275","ImagesDirect/VL97.5.png","188","test",".","image-keyboard-response","200","326219","0.0-4.0-1.8","false"
"2476","ImagesTennis/TR105.png","190","test",".","image-keyboard-response","202","329212","0.0-4.0-1.9","true"
"1988","ImagesDirect/VR102.5.png","190","test",".","image-keyboard-response","204","331706","0.0-4.0-1.10","true"
"1383","ImagesDirect/VR105.png","190","test",".","image-keyboard-response","206","333609","0.0-4.0-1.11","true"
"1824","ImagesTennis/TR90.png","188","test",",","image-keyboard-response","208","335950","0.0-4.0-1.12","true"
"1680","ImagesSoccer/VL100.png","188","test",".","image-keyboard-response","210","338140","0.0-4.0-1.13","false"
"3230","ImagesDirect/VL102.5.png","188","test",",","image-keyboard-response","212","341887","0.0-4.0-1.14","true"
"5939","ImagesDirect/VR97.5.png","190","test",",","image-keyboard-response","214","348337","0.0-4.0-1.15","false"
"1233","ImagesSoccer/VL90.png","190","test",".","image-keyboard-response","216","350093","0.0-4.0-1.16","true"
"1425","ImagesSoccer/VR110.png","190","test",".","image-keyboard-response","218","352033","0.0-4.0-1.17","true"
"1314","ImagesSoccer/VR95.png","188","test",",","image-keyboard-response","220","353850","0.0-4.0-1.18","true"
"1987","ImagesDirect/VL105.png","188","test",",","image-keyboard-response","222","356345","0.0-4.0-1.19","true"
"2721","ImagesDirect/VL100.png","188","test",".","image-keyboard-response","224","359578","0.0-4.0-1.20","false"
"1469","ImagesSoccer/VR90.png","188","test",",","image-keyboard-response","226","361560","0.0-4.0-1.21","true"
"3159","ImagesTennis/TL100.png","188","test",".","image-keyboard-response","228","365230","0.0-4.0-1.22","false"
"2760","ImagesSoccer/VR105.png","190","test",".","image-keyboard-response","230","368501","0.0-4.0-1.23","true"
"1700","ImagesTennis/TL105.png","188","test",",","image-keyboard-response","232","370716","0.0-4.0-1.24","true"
"1651","ImagesDirect/VL90.png","190","test",".","image-keyboard-response","234","372876","0.0-4.0-1.25","true"
"1356","ImagesTennis/TR107.5.png","190","test",".","image-keyboard-response","236","374741","0.0-4.0-1.26","true"
"2008","ImagesTennis/TR95.png","188","test",",","image-keyboard-response","238","377258","0.0-4.0-1.27","true"
"1246","ImagesSoccer/VL107.5.png","188","test",",","image-keyboard-response","240","379012","0.0-4.0-1.28","true"
"1102","ImagesSoccer/VL110.png","188","test",",","image-keyboard-response","242","380633","0.0-4.0-1.29","true"
"2907","ImagesTennis/TL97.5.png","190","test",".","image-keyboard-response","244","384058","0.0-4.0-1.30","true"
"1257","ImagesTennis/TR97.5.png","190","test",",","image-keyboard-response","246","385826","0.0-4.0-1.31","false"
"1845","ImagesDirect/VR92.5.png","188","test",",","image-keyboard-response","248","388177","0.0-4.0-1.32","true"
"1357","ImagesTennis/TL90.png","190","test",".","image-keyboard-response","250","390043","0.0-4.0-1.33","true"
"1646","ImagesSoccer/VL102.5.png","188","test",",","image-keyboard-response","252","392208","0.0-4.0-1.34","true"
"1689","ImagesTennis/TL92.5.png","190","test",".","image-keyboard-response","254","394406","0.0-4.0-1.35","true"
"1145","ImagesTennis/TL107.5.png","188","test",",","image-keyboard-response","256","396060","0.0-4.0-1.36","true"
"2313","ImagesDirect/VR95.png","188","test",",","image-keyboard-response","258","398887","0.0-4.0-1.37","true"
"3715","ImagesDirect/VR100.png","190","test",".","image-keyboard-response","260","403113","0.0-4.0-1.38","true"
"2066","ImagesSoccer/VR97.5.png","190","test",",","image-keyboard-response","262","405690","0.0-4.0-1.39","false"
"3088","ImagesTennis/TR100.png","190","test",".","image-keyboard-response","264","409283","0.0-4.0-1.40","true"
"1260","ImagesTennis/TL95.png","190","test",".","image-keyboard-response","266","411051","0.0-4.0-1.41","true"
"1119","ImagesDirect/VL107.5.png","188","test",",","image-keyboard-response","268","412686","0.0-4.0-1.42","true"
"34872","ImagesDirect/VL95.png","188","test",".","image-keyboard-response","270","448070","0.0-4.0-1.43","false"
"3244","ImagesTennis/TL102.5.png","188","test",",","image-keyboard-response","272","451833","0.0-4.0-1.44","true"
"818","ImagesTennis/TR102.5.png","190","test",".","image-keyboard-response","274","453155","0.0-4.0-1.45","true"
"977","ImagesSoccer/VR92.5.png","190","test",",","image-keyboard-response","276","454639","0.0-4.0-1.46","false"
"814","ImagesTennis/TR110.png","190","test",".","image-keyboard-response","278","455958","0.0-4.0-1.47","true"
"2115","ImagesSoccer/VL97.5.png","188","test",".","image-keyboard-response","280","458586","0.0-4.0-1.48","false"
"879","ImagesDirect/VR107.5.png","190","test",".","image-keyboard-response","282","459968","0.0-4.0-1.49","true"
"633","ImagesDirect/VR110.png","190","test",".","image-keyboard-response","284","461104","0.0-4.0-1.50","true"
"1319","ImagesSoccer/VL92.5.png","190","test",".","image-keyboard-response","286","462940","0.0-4.0-1.51","true"
"5124","ImagesTennis/TR92.5.png","188","test",",","image-keyboard-response","288","468567","0.0-4.0-1.52","true"
"791","ImagesTennis/TL110.png","188","test",",","image-keyboard-response","290","469863","0.0-4.0-1.53","true"
"2481","ImagesDirect/VR95.png","190","test",",","image-keyboard-response","292","472850","0.0-4.0-1.54","false"
"771","ImagesSoccer/VR110.png","190","test",".","image-keyboard-response","294","474132","0.0-4.0-1.55","true"
"911","ImagesTennis/TR107.5.png","190","test",".","image-keyboard-response","296","475546","0.0-4.0-1.56","true"
"2288","ImagesTennis/TR90.png","188","test",",","image-keyboard-response","298","478342","0.0-4.0-1.57","true"
"972","ImagesTennis/TR110.png","190","test",".","image-keyboard-response","300","479831","0.0-4.0-1.58","true"
"2176","ImagesTennis/TL102.5.png","188","test",",","image-keyboard-response","302","482512","0.0-4.0-1.59","true"
"1350","ImagesDirect/VL102.5.png","188","test",",","image-keyboard-response","304","484378","0.0-4.0-1.60","true"
"1068","ImagesDirect/VR110.png","190","test",".","image-keyboard-response","306","485959","0.0-4.0-1.61","true"
"9280","ImagesSoccer/VL95.png","190","test",".","image-keyboard-response","308","495750","0.0-4.0-1.62","true"
"1344","ImagesTennis/TL100.png","190","test",".","image-keyboard-response","310","497607","0.0-4.0-1.63","true"
"2309","ImagesTennis/TR95.png","188","test",",","image-keyboard-response","312","500419","0.0-4.0-1.64","true"
"944","ImagesSoccer/VR102.5.png","190","test",".","image-keyboard-response","314","501881","0.0-4.0-1.65","true"
"1187","ImagesDirect/VR97.5.png","190","test",",","image-keyboard-response","316","503577","0.0-4.0-1.66","false"
"2240","ImagesSoccer/VL97.5.png","188","test",".","image-keyboard-response","318","506324","0.0-4.0-1.67","false"
"1462","ImagesTennis/TL105.png","188","test",",","image-keyboard-response","320","508295","0.0-4.0-1.68","true"
"809","ImagesSoccer/VR105.png","190","test",".","image-keyboard-response","322","509610","0.0-4.0-1.69","true"
"763","ImagesSoccer/VL110.png","188","test",",","image-keyboard-response","324","510877","0.0-4.0-1.70","true"
"2429","ImagesSoccer/VR95.png","190","test",",","image-keyboard-response","326","513811","0.0-4.0-1.71","false"
"1737","ImagesDirect/VL97.5.png","188","test",".","image-keyboard-response","328","516056","0.0-4.0-1.72","false"
"1066","ImagesDirect/VL92.5.png","190","test",".","image-keyboard-response","330","517632","0.0-4.0-1.73","true"
"1183","ImagesTennis/TL90.png","190","test",".","image-keyboard-response","332","519318","0.0-4.0-1.74","true"
"1704","ImagesTennis/TR97.5.png","190","test",",","image-keyboard-response","334","521527","0.0-4.0-1.75","false"
"3838","ImagesDirect/VR92.5.png","188","test",",","image-keyboard-response","336","525869","0.0-4.0-1.76","true"
"2044","ImagesTennis/TR92.5.png","188","test",",","image-keyboard-response","338","528422","0.0-4.0-1.77","true"
"1662","ImagesTennis/TL95.png","190","test",".","image-keyboard-response","340","530589","0.0-4.0-1.78","true"
"955","ImagesDirect/VL110.png","188","test",",","image-keyboard-response","342","532059","0.0-4.0-1.79","true"
"1721","ImagesSoccer/VR90.png","190","test",",","image-keyboard-response","344","534288","0.0-4.0-1.80","false"
"2493","ImagesSoccer/VR92.5.png","190","test",",","image-keyboard-response","346","537297","0.0-4.0-1.81","false"
"832","ImagesSoccer/VR97.5.png","190","test",",","image-keyboard-response","348","538645","0.0-4.0-1.82","false"
"1368","ImagesTennis/TR105.png","190","test",".","image-keyboard-response","350","540531","0.0-4.0-1.83","true"
"1781","ImagesSoccer/VL100.png","188","test",".","image-keyboard-response","352","542817","0.0-4.0-1.84","false"
"1432","ImagesDirect/VR100.png","190","test",".","image-keyboard-response","354","544758","0.0-4.0-1.85","true"
"859","ImagesDirect/VR107.5.png","190","test",".","image-keyboard-response","356","546123","0.0-4.0-1.86","true"
"3960","ImagesDirect/VL100.png","188","test",".","image-keyboard-response","358","550587","0.0-4.0-1.87","false"
"1755","ImagesDirect/VR102.5.png","190","test",".","image-keyboard-response","360","552855","0.0-4.0-1.88","true"
"1326","ImagesTennis/TL110.png","188","test",",","image-keyboard-response","362","554693","0.0-4.0-1.89","true"
"1088","ImagesTennis/TL97.5.png","190","test",".","image-keyboard-response","364","556297","0.0-4.0-1.90","true"
"2015","ImagesDirect/VL105.png","188","test",",","image-keyboard-response","366","558817","0.0-4.0-1.91","true"
"2118","ImagesTennis/TR100.png","188","test",".","image-keyboard-response","368","561451","0.0-4.0-1.92","false"
"1102","ImagesSoccer/VL102.5.png","188","test",",","image-keyboard-response","370","563054","0.0-4.0-1.93","true"
"876","ImagesDirect/VR105.png","190","test",".","image-keyboard-response","372","564446","0.0-4.0-1.94","true"
"2425","ImagesDirect/VL95.png","188","test",".","image-keyboard-response","374","567381","0.0-4.0-1.95","false"
"1180","ImagesSoccer/VL105.png","188","test",",","image-keyboard-response","376","569078","0.0-4.0-1.96","true"
"1079","ImagesTennis/TL92.5.png","190","test",".","image-keyboard-response","378","570660","0.0-4.0-1.97","true"
"1229","ImagesSoccer/VL90.png","190","test",".","image-keyboard-response","380","572407","0.0-4.0-1.98","true"
"2036","ImagesTennis/TR102.5.png","190","test",".","image-keyboard-response","382","574953","0.0-4.0-1.99","true"
"2084","ImagesSoccer/VL92.5.png","190","test",".","image-keyboard-response","384","577542","0.0-4.0-1.100","true"
"2272","ImagesDirect/VR90.png","188","test",",","image-keyboard-response","386","580320","0.0-4.0-1.101","true"
"1506","ImagesSoccer/VR107.5.png","190","test",".","image-keyboard-response","388","582341","0.0-4.0-1.102","true"
"877","ImagesSoccer/VR100.png","190","test",".","image-keyboard-response","390","583728","0.0-4.0-1.103","true"
"681","ImagesSoccer/VL107.5.png","188","test",",","image-keyboard-response","392","584926","0.0-4.0-1.104","true"
"1033","ImagesDirect/VL107.5.png","188","test",",","image-keyboard-response","394","586467","0.0-4.0-1.105","true"
"1604","ImagesTennis/TL107.5.png","188","test",",","image-keyboard-response","396","588583","0.0-4.0-1.106","true"
"2959","ImagesDirect/VL90.png","190","test",".","image-keyboard-response","398","592056","0.0-4.0-1.107","true"
"1018","ImagesSoccer/VL110.png","188","test",",","image-keyboard-response","400","593584","0.0-4.0-1.108","true"
"727","ImagesDirect/VL107.5.png","188","test",",","image-keyboard-response","402","594815","0.0-4.0-1.109","true"
"853","ImagesDirect/VL95.png","188","test",".","image-keyboard-response","404","596185","0.0-4.0-1.110","false"
"1150","ImagesTennis/TL107.5.png","188","test",",","image-keyboard-response","406","597847","0.0-4.0-1.111","true"
"1100","ImagesSoccer/VR100.png","190","test",".","image-keyboard-response","408","599450","0.0-4.0-1.112","true"
"770","ImagesTennis/TL102.5.png","188","test",",","image-keyboard-response","410","600729","0.0-4.0-1.113","true"
"717","ImagesTennis/TR107.5.png","190","test",".","image-keyboard-response","412","601950","0.0-4.0-1.114","true"
"1308","ImagesTennis/TR95.png","188","test",",","image-keyboard-response","414","603761","0.0-4.0-1.115","true"
"862","ImagesDirect/VR105.png","190","test",".","image-keyboard-response","416","605130","0.0-4.0-1.116","true"
"1742","ImagesDirect/VL102.5.png","188","test",",","image-keyboard-response","418","607381","0.0-4.0-1.117","true"
"1291","ImagesSoccer/VL92.5.png","188","test",".","image-keyboard-response","420","609182","0.0-4.0-1.118","false"
"818","ImagesSoccer/VR107.5.png","190","test",".","image-keyboard-response","422","610513","0.0-4.0-1.119","true"
"1887","ImagesDirect/VL100.png","188","test",".","image-keyboard-response","424","612919","0.0-4.0-1.120","false"
"2745","ImagesDirect/VL90.png","190","test",".","image-keyboard-response","426","616168","0.0-4.0-1.121","true"
"1272","ImagesTennis/TR105.png","190","test",".","image-keyboard-response","428","617958","0.0-4.0-1.122","true"
"840","ImagesSoccer/VR90.png","190","test",",","image-keyboard-response","430","619301","0.0-4.0-1.123","false"
"1037","ImagesSoccer/VL102.5.png","188","test",",","image-keyboard-response","432","620841","0.0-4.0-1.124","true"
"824","ImagesSoccer/VR95.png","190","test",",","image-keyboard-response","434","622169","0.0-4.0-1.125","false"
"853","ImagesDirect/VR102.5.png","190","test",".","image-keyboard-response","436","623527","0.0-4.0-1.126","true"
"1057","ImagesTennis/TR110.png","190","test",".","image-keyboard-response","438","625095","0.0-4.0-1.127","true"
"871","ImagesSoccer/VR97.5.png","190","test",",","image-keyboard-response","440","626479","0.0-4.0-1.128","false"
"1157","ImagesTennis/TL90.png","190","test",".","image-keyboard-response","442","628140","0.0-4.0-1.129","true"
"909","ImagesTennis/TL95.png","190","test",".","image-keyboard-response","444","629553","0.0-4.0-1.130","true"
"2866","ImagesSoccer/VL97.5.png","188","test",".","image-keyboard-response","446","632925","0.0-4.0-1.131","false"
"1540","ImagesTennis/TL100.png","188","test",".","image-keyboard-response","448","634969","0.0-4.0-1.132","false"
"1582","ImagesDirect/VL105.png","188","test",",","image-keyboard-response","450","637068","0.0-4.0-1.133","true"
"1453","ImagesDirect/VR97.5.png","188","test",",","image-keyboard-response","452","639030","0.0-4.0-1.134","true"
"1351","ImagesSoccer/VL107.5.png","188","test",",","image-keyboard-response","454","640890","0.0-4.0-1.135","true"
"1777","ImagesTennis/TR90.png","188","test",",","image-keyboard-response","456","643170","0.0-4.0-1.136","true"
"784","ImagesDirect/VR110.png","190","test",".","image-keyboard-response","458","644462","0.0-4.0-1.137","true"
"855","ImagesDirect/VR92.5.png","188","test",",","image-keyboard-response","460","645821","0.0-4.0-1.138","true"
"1037","ImagesTennis/TR100.png","190","test",".","image-keyboard-response","462","647371","0.0-4.0-1.139","true"
"979","ImagesTennis/TL110.png","188","test",",","image-keyboard-response","464","648858","0.0-4.0-1.140","true"
"786","ImagesDirect/VR107.5.png","190","test",".","image-keyboard-response","466","650156","0.0-4.0-1.141","true"
"2361","ImagesDirect/VR95.png","190","test",",","image-keyboard-response","468","653022","0.0-4.0-1.142","false"
"949","ImagesSoccer/VL105.png","188","test",",","image-keyboard-response","470","654479","0.0-4.0-1.143","true"
"1252","ImagesTennis/TR102.5.png","190","test",".","image-keyboard-response","472","656250","0.0-4.0-1.144","true"
"704","ImagesSoccer/VR110.png","190","test",".","image-keyboard-response","474","657470","0.0-4.0-1.145","true"
"654","ImagesSoccer/VR105.png","190","test",".","image-keyboard-response","476","658631","0.0-4.0-1.146","true"
"1702","ImagesSoccer/VL100.png","188","test",".","image-keyboard-response","478","660849","0.0-4.0-1.147","false"
"1768","ImagesDirect/VL97.5.png","188","test",".","image-keyboard-response","480","663121","0.0-4.0-1.148","false"
"757","ImagesSoccer/VR102.5.png","190","test",".","image-keyboard-response","482","664393","0.0-4.0-1.149","true"
"1331","ImagesTennis/TL92.5.png","190","test",".","image-keyboard-response","484","666235","0.0-4.0-1.150","true"
"1904","ImagesDirect/VL110.png","188","test",",","image-keyboard-response","486","668657","0.0-4.0-1.151","true"
"1482","ImagesSoccer/VL95.png","190","test",".","image-keyboard-response","488","670642","0.0-4.0-1.152","true"
"1702","ImagesDirect/VR90.png","188","test",",","image-keyboard-response","490","672853","0.0-4.0-1.153","true"
"2421","ImagesDirect/VR100.png","190","test",".","image-keyboard-response","492","675777","0.0-4.0-1.154","true"
"4848","ImagesSoccer/VR92.5.png","190","test",",","image-keyboard-response","494","681133","0.0-4.0-1.155","false"
"3645","ImagesTennis/TL97.5.png","190","test",".","image-keyboard-response","496","685286","0.0-4.0-1.156","true"
"1737","ImagesSoccer/VL90.png","188","test",".","image-keyboard-response","498","687542","0.0-4.0-1.157","false"
"993","ImagesTennis/TL105.png","188","test",",","image-keyboard-response","500","689038","0.0-4.0-1.158","true"
"2344","ImagesTennis/TR92.5.png","190","test",",","image-keyboard-response","502","691886","0.0-4.0-1.159","false"
"926","ImagesTennis/TR97.5.png","190","test",",","image-keyboard-response","504","693319","0.0-4.0-1.160","false"
"2183","ImagesDirect/VL92.5.png","190","test",".","image-keyboard-response","506","696008","0.0-4.0-1.161","true"
"884","ImagesDirect/VL102.5.png","188","test",",","image-keyboard-response","508","697400","0.0-4.0-1.162","true"
"7801","ImagesTennis/TR100.png","190","test",".","image-keyboard-response","510","705705","0.0-4.0-1.163","true"
"1592","ImagesTennis/TR90.png","188","test",",","image-keyboard-response","512","707803","0.0-4.0-1.164","true"
"2490","ImagesTennis/TL102.5.png","188","test",",","image-keyboard-response","514","710799","0.0-4.0-1.165","true"
"2803","ImagesTennis/TR110.png","190","test",".","image-keyboard-response","516","714117","0.0-4.0-1.166","true"
"935","ImagesTennis/TR95.png","188","test",",","image-keyboard-response","518","715560","0.0-4.0-1.167","true"
"783","ImagesDirect/VR105.png","190","test",".","image-keyboard-response","520","716856","0.0-4.0-1.168","true"
"828","ImagesDirect/VL100.png","188","test",".","image-keyboard-response","522","718190","0.0-4.0-1.169","false"
"2934","ImagesTennis/TL100.png","188","test",".","image-keyboard-response","524","721637","0.0-4.0-1.170","false"
"1610","ImagesSoccer/VR90.png","190","test",",","image-keyboard-response","526","723761","0.0-4.0-1.171","false"
"3740","ImagesSoccer/VL90.png","188","test",".","image-keyboard-response","528","728018","0.0-4.0-1.172","false"
"1030","ImagesSoccer/VR105.png","190","test",".","image-keyboard-response","530","729560","0.0-4.0-1.173","true"
"1296","ImagesDirect/VR92.5.png","188","test",",","image-keyboard-response","532","731360","0.0-4.0-1.174","true"
"2993","ImagesTennis/TL95.png","190","test",".","image-keyboard-response","534","734869","0.0-4.0-1.175","true"
"2626","ImagesSoccer/VR92.5.png","190","test",",","image-keyboard-response","536","738004","0.0-4.0-1.176","false"
"1115","ImagesDirect/VR107.5.png","190","test",".","image-keyboard-response","538","739633","0.0-4.0-1.177","true"
"2559","ImagesTennis/TR97.5.png","190","test",",","image-keyboard-response","540","742695","0.0-4.0-1.178","false"
"1184","ImagesSoccer/VR100.png","190","test",".","image-keyboard-response","542","744390","0.0-4.0-1.179","true"
"1447","ImagesSoccer/VL105.png","190","test",",","image-keyboard-response","544","746349","0.0-4.0-1.180","false"
"1566","ImagesTennis/TL92.5.png","190","test",".","image-keyboard-response","546","748422","0.0-4.0-1.181","true"
"1131","ImagesSoccer/VR110.png","190","test",".","image-keyboard-response","548","750063","0.0-4.0-1.182","true"
"5165","ImagesSoccer/VR97.5.png","190","test",",","image-keyboard-response","550","755737","0.0-4.0-1.183","false"
"3618","ImagesDirect/VL92.5.png","190","test",".","image-keyboard-response","552","759859","0.0-4.0-1.184","true"
"1782","ImagesSoccer/VL100.png","188","test",".","image-keyboard-response","554","762157","0.0-4.0-1.185","false"
"1005","ImagesDirect/VR102.5.png","190","test",".","image-keyboard-response","556","763680","0.0-4.0-1.186","true"
"1376","ImagesDirect/VR100.png","190","test",".","image-keyboard-response","558","765568","0.0-4.0-1.187","true"
"808","ImagesSoccer/VL110.png","188","test",",","image-keyboard-response","560","766881","0.0-4.0-1.188","true"
"718","ImagesDirect/VL107.5.png","188","test",",","image-keyboard-response","562","768117","0.0-4.0-1.189","true"
"1457","ImagesTennis/TL90.png","188","test",".","image-keyboard-response","564","770083","0.0-4.0-1.190","false"
"640","ImagesTennis/TR105.png","190","test",".","image-keyboard-response","566","771227","0.0-4.0-1.191","true"
"2149","ImagesDirect/VL90.png","190","test",".","image-keyboard-response","568","773893","0.0-4.0-1.192","true"
"864","ImagesDirect/VR97.5.png","190","test",",","image-keyboard-response","570","775265","0.0-4.0-1.193","false"
"743","ImagesSoccer/VR107.5.png","190","test",".","image-keyboard-response","572","776512","0.0-4.0-1.194","true"
"755","ImagesSoccer/VL107.5.png","188","test",",","image-keyboard-response","574","777780","0.0-4.0-1.195","true"
"1405","ImagesTennis/TL97.5.png","188","test",".","image-keyboard-response","576","779688","0.0-4.0-1.196","false"
"726","ImagesTennis/TR107.5.png","190","test",".","image-keyboard-response","578","780918","0.0-4.0-1.197","true"
"1332","ImagesSoccer/VL102.5.png","188","test",",","image-keyboard-response","580","782765","0.0-4.0-1.198","true"
"817","ImagesTennis/TL107.5.png","188","test",",","image-keyboard-response","582","784091","0.0-4.0-1.199","true"
"665","ImagesTennis/TR102.5.png","190","test",".","image-keyboard-response","584","785260","0.0-4.0-1.200","true"
"1102","ImagesSoccer/VL92.5.png","188","test",".","image-keyboard-response","586","786874","0.0-4.0-1.201","false"
"1042","ImagesTennis/TL110.png","188","test",",","image-keyboard-response","588","788420","0.0-4.0-1.202","true"
"775","ImagesSoccer/VL97.5.png","188","test",".","image-keyboard-response","590","789706","0.0-4.0-1.203","false"
"976","ImagesTennis/TL105.png","188","test",",","image-keyboard-response","592","791199","0.0-4.0-1.204","true"
"2106","ImagesDirect/VL95.png","188","test",".","image-keyboard-response","594","793810","0.0-4.0-1.205","false"
"2999","ImagesDirect/VL97.5.png","188","test",".","image-keyboard-response","596","797313","0.0-4.0-1.206","false"
"882","ImagesSoccer/VR102.5.png","190","test",".","image-keyboard-response","598","798700","0.0-4.0-1.207","true"
"913","ImagesSoccer/VL95.png","188","test",".","image-keyboard-response","600","800128","0.0-4.0-1.208","false"
"633","ImagesDirect/VR110.png","190","test",".","image-keyboard-response","602","801269","0.0-4.0-1.209","true"
"1197","ImagesTennis/TR92.5.png","188","test",",","image-keyboard-response","604","802978","0.0-4.0-1.210","true"
"662","ImagesDirect/VL110.png","188","test",",","image-keyboard-response","606","804159","0.0-4.0-1.211","true"
"803","ImagesDirect/VL105.png","188","test",",","image-keyboard-response","608","805469","0.0-4.0-1.212","true"
"2634","ImagesSoccer/VR95.png","190","test",",","image-keyboard-response","610","808607","0.0-4.0-1.213","false"
"2163","ImagesDirect/VR95.png","188","test",",","image-keyboard-response","612","811276","0.0-4.0-1.214","true"
"965","ImagesDirect/VR90.png","188","test",",","image-keyboard-response","614","812753","0.0-4.0-1.215","true"
"1189","ImagesDirect/VL102.5.png","188","test",",","image-keyboard-response","616","814456","0.0-4.0-1.216","true"
"1301","ImagesTennis/TR107.5.png","190","test",".","image-keyboard-response","618","816274","0.0-4.0-1.217","true"
"1532","ImagesTennis/TR97.5.png","188","test",",","image-keyboard-response","620","818312","0.0-4.0-1.218","true"
"1236","ImagesTennis/TR92.5.png","188","test",",","image-keyboard-response","622","820052","0.0-4.0-1.219","true"
"2184","ImagesTennis/TL97.5.png","188","test",".","image-keyboard-response","624","822745","0.0-4.0-1.220","false"
"1129","ImagesTennis/TL90.png","188","test",".","image-keyboard-response","626","824387","0.0-4.0-1.221","false"
"1185","ImagesTennis/TL92.5.png","188","test",".","image-keyboard-response","628","826076","0.0-4.0-1.222","false"
"1828","ImagesSoccer/VL100.png","188","test",".","image-keyboard-response","630","828409","0.0-4.0-1.223","false"
"1012","ImagesTennis/TL107.5.png","188","test",",","image-keyboard-response","632","829940","0.0-4.0-1.224","true"
"2373","ImagesSoccer/VL90.png","190","test",".","image-keyboard-response","634","832816","0.0-4.0-1.225","true"
"871","ImagesSoccer/VL102.5.png","188","test",",","image-keyboard-response","636","834192","0.0-4.0-1.226","true"
"751","ImagesDirect/VL110.png","188","test",",","image-keyboard-response","638","835447","0.0-4.0-1.227","true"
"1049","ImagesSoccer/VL97.5.png","188","test",".","image-keyboard-response","640","837000","0.0-4.0-1.228","false"
"1960","ImagesDirect/VR102.5.png","190","test",".","image-keyboard-response","642","839474","0.0-4.0-1.229","true"
"2111","ImagesDirect/VL95.png","190","test",".","image-keyboard-response","644","842096","0.0-4.0-1.230","true"
"34527","ImagesSoccer/VL92.5.png","188","test",".","image-keyboard-response","646","877133","0.0-4.0-1.231","false"
"924","ImagesDirect/VL90.png","190","test",".","image-keyboard-response","648","878567","0.0-4.0-1.232","true"
"744","ImagesSoccer/VR95.png","190","test",",","image-keyboard-response","650","879825","0.0-4.0-1.233","false"
"699","ImagesSoccer/VL110.png","188","test",",","image-keyboard-response","652","881042","0.0-4.0-1.234","true"
"554","ImagesDirect/VL105.png","188","test",",","image-keyboard-response","654","882113","0.0-4.0-1.235","true"
"868","ImagesDirect/VR100.png","190","test",".","image-keyboard-response","656","883492","0.0-4.0-1.236","true"
"514","ImagesDirect/VR107.5.png","190","test",".","image-keyboard-response","658","884524","0.0-4.0-1.237","true"
"1736","ImagesDirect/VL97.5.png","190","test",".","image-keyboard-response","660","886764","0.0-4.0-1.238","true"
"781","ImagesSoccer/VL95.png","188","test",".","image-keyboard-response","662","888059","0.0-4.0-1.239","false"
"854","ImagesDirect/VR92.5.png","190","test",",","image-keyboard-response","664","889421","0.0-4.0-1.240","false"
"1634","ImagesTennis/TR90.png","188","test",",","image-keyboard-response","666","891559","0.0-4.0-1.241","true"
"789","ImagesDirect/VR97.5.png","190","test",",","image-keyboard-response","668","892859","0.0-4.0-1.242","false"
"1520","ImagesDirect/VL100.png","188","test",".","image-keyboard-response","670","894882","0.0-4.0-1.243","false"
"20810","ImagesSoccer/VR105.png","190","test",".","image-keyboard-response","672","916196","0.0-4.0-1.244","true"
"651","ImagesSoccer/VR107.5.png","190","test",".","image-keyboard-response","674","917366","0.0-4.0-1.245","true"
"1722","ImagesTennis/TL95.png","190","test",".","image-keyboard-response","676","919600","0.0-4.0-1.246","true"
"1628","ImagesSoccer/VR97.5.png","190","test",",","image-keyboard-response","678","921743","0.0-4.0-1.247","false"
"804","ImagesSoccer/VL107.5.png","188","test",",","image-keyboard-response","680","923055","0.0-4.0-1.248","true"
"2125","ImagesTennis/TR95.png","188","test",",","image-keyboard-response","682","925694","0.0-4.0-1.249","true"
"727","ImagesDirect/VL107.5.png","188","test",",","image-keyboard-response","684","926925","0.0-4.0-1.250","true"
"4813","ImagesDirect/VL92.5.png","190","test",".","image-keyboard-response","686","932250","0.0-4.0-1.251","true"
"5220","ImagesTennis/TR110.png","190","test",".","image-keyboard-response","688","937990","0.0-4.0-1.252","true"
"2960","ImagesDirect/VR95.png","190","test",",","image-keyboard-response","690","941456","0.0-4.0-1.253","false"
"643","ImagesSoccer/VR110.png","190","test",".","image-keyboard-response","692","942611","0.0-4.0-1.254","true"
"2843","ImagesTennis/TR102.5.png","190","test",".","image-keyboard-response","694","945960","0.0-4.0-1.255","true"
"5047","ImagesSoccer/VR102.5.png","190","test",".","image-keyboard-response","696","951525","0.0-4.0-1.256","true"
"823","ImagesTennis/TL110.png","188","test",",","image-keyboard-response","698","952861","0.0-4.0-1.257","true"
"7197","ImagesSoccer/VR90.png","188","test",",","image-keyboard-response","700","960570","0.0-4.0-1.258","true"
"1067","ImagesTennis/TL100.png","190","test",".","image-keyboard-response","702","962143","0.0-4.0-1.259","true"
"697","ImagesDirect/VR105.png","190","test",".","image-keyboard-response","704","963345","0.0-4.0-1.260","true"
"24154","ImagesSoccer/VR92.5.png","190","test",",","image-keyboard-response","706","988004","0.0-4.0-1.261","false"
"871","ImagesTennis/TL105.png","188","test",",","image-keyboard-response","708","989385","0.0-4.0-1.262","true"
"578","ImagesTennis/TR105.png","190","test",".","image-keyboard-response","710","990476","0.0-4.0-1.263","true"
"625","ImagesSoccer/VL105.png","188","test",",","image-keyboard-response","712","991605","0.0-4.0-1.264","true"
"1515","ImagesDirect/VR90.png","188","test",",","image-keyboard-response","714","993633","0.0-4.0-1.265","true"
"586","ImagesSoccer/VR100.png","190","test",".","image-keyboard-response","716","994723","0.0-4.0-1.266","true"
"568","ImagesDirect/VR110.png","190","test",".","image-keyboard-response","718","995801","0.0-4.0-1.267","true"
"1142","ImagesTennis/TL102.5.png","188","test",",","image-keyboard-response","720","997454","0.0-4.0-1.268","true"
"743","ImagesTennis/TR100.png","190","test",".","image-keyboard-response","722","998713","0.0-4.0-1.269","true"
