"rt","stimulus","key_press","test_part","correct_response","trial_type","trial_index","time_elapsed","internal_node_id","correct"
"9067","ImagesCoins/10R100.png","190","test",".","image-keyboard-response","4","42771","0.0-3.0-1.0","true"
"2353","ImagesCoins/10L107.5.png","188","test",",","image-keyboard-response","6","45638","0.0-3.0-1.1","true"
"7588","ImagesCoins/10L95.png","190","test",".","image-keyboard-response","8","53739","0.0-3.0-1.2","true"
"3524","ImagesCoins/10R105.png","190","test",".","image-keyboard-response","10","57779","0.0-3.0-1.3","true"
"1861","ImagesCoins/10L97.5.png","188","test",".","image-keyboard-response","12","60163","0.0-3.0-1.4","false"
"2882","ImagesCoins/10L92.5.png","188","test",".","image-keyboard-response","14","63560","0.0-3.0-1.5","false"
"1960","ImagesCoins/10L110.png","188","test",",","image-keyboard-response","16","66032","0.0-3.0-1.6","true"
"2534","ImagesCoins/10R102.5.png","190","test",".","image-keyboard-response","18","69080","0.0-3.0-1.7","true"
"1465","ImagesCoins/10L102.5.png","188","test",",","image-keyboard-response","20","71069","0.0-3.0-1.8","true"
"2071","ImagesCoins/10R97.5.png","190","test",",","image-keyboard-response","22","73661","0.0-3.0-1.9","false"
"1630","ImagesCoins/10L90.png","190","test",".","image-keyboard-response","24","75812","0.0-3.0-1.10","true"
"3019","ImagesCoins/10R92.5.png","188","test",",","image-keyboard-response","26","79341","0.0-3.0-1.11","true"
"1549","ImagesCoins/10R90.png","188","test",",","image-keyboard-response","28","81401","0.0-3.0-1.12","true"
"1963","ImagesCoins/10R95.png","188","test",",","image-keyboard-response","30","83875","0.0-3.0-1.13","true"
"1432","ImagesCoins/10R107.5.png","190","test",".","image-keyboard-response","32","85823","0.0-3.0-1.14","true"
"1842","ImagesCoins/10L105.png","188","test",",","image-keyboard-response","34","88174","0.0-3.0-1.15","true"
"2087","ImagesCoins/10R110.png","190","test",".","image-keyboard-response","36","90777","0.0-3.0-1.16","true"
"2929","ImagesCoins/10L100.png","188","test",".","image-keyboard-response","38","94231","0.0-3.0-1.17","false"
"1865","ImagesCoins/10R95.png","188","test",",","image-keyboard-response","40","96610","0.0-3.0-1.18","true"
"858","ImagesCoins/10L92.5.png","190","test",".","image-keyboard-response","42","97987","0.0-3.0-1.19","true"
"1028","ImagesCoins/10R97.5.png","190","test",",","image-keyboard-response","44","99521","0.0-3.0-1.20","false"
"716","ImagesCoins/10R107.5.png","190","test",".","image-keyboard-response","46","100747","0.0-3.0-1.21","true"
"647","ImagesCoins/10L110.png","188","test",",","image-keyboard-response","48","101903","0.0-3.0-1.22","true"
"1396","ImagesCoins/10L107.5.png","188","test",",","image-keyboard-response","50","103806","0.0-3.0-1.23","true"
"1392","ImagesCoins/10R102.5.png","190","test",".","image-keyboard-response","52","105715","0.0-3.0-1.24","true"
"756","ImagesCoins/10R100.png","190","test",".","image-keyboard-response","54","106987","0.0-3.0-1.25","true"
"677","ImagesCoins/10R105.png","190","test",".","image-keyboard-response","56","108178","0.0-3.0-1.26","true"
"1548","ImagesCoins/10L97.5.png","188","test",".","image-keyboard-response","58","110237","0.0-3.0-1.27","false"
"667","ImagesCoins/10L90.png","190","test",".","image-keyboard-response","60","111415","0.0-3.0-1.28","true"
"858","ImagesCoins/10L102.5.png","188","test",",","image-keyboard-response","62","112778","0.0-3.0-1.29","true"
"524","ImagesCoins/10L105.png","188","test",",","image-keyboard-response","64","113826","0.0-3.0-1.30","true"
"536","ImagesCoins/10R90.png","190","test",",","image-keyboard-response","66","114875","0.0-3.0-1.31","false"
"1151","ImagesCoins/10R92.5.png","188","test",",","image-keyboard-response","68","116543","0.0-3.0-1.32","true"
"1375","ImagesCoins/10L100.png","188","test",".","image-keyboard-response","70","118432","0.0-3.0-1.33","false"
"990","ImagesCoins/10R110.png","190","test",".","image-keyboard-response","72","119931","0.0-3.0-1.34","true"
"1557","ImagesCoins/10L95.png","190","test",".","image-keyboard-response","74","121993","0.0-3.0-1.35","true"
"1316","ImagesCoins/10R105.png","190","test",".","image-keyboard-response","76","123816","0.0-3.0-1.36","true"
"877","ImagesCoins/10R102.5.png","190","test",".","image-keyboard-response","78","125206","0.0-3.0-1.37","true"
"847","ImagesCoins/10L95.png","190","test",".","image-keyboard-response","80","126572","0.0-3.0-1.38","true"
"918","ImagesCoins/10R100.png","190","test",".","image-keyboard-response","82","128003","0.0-3.0-1.39","true"
"891","ImagesCoins/10L97.5.png","190","test",".","image-keyboard-response","84","129408","0.0-3.0-1.40","true"
"1105","ImagesCoins/10R97.5.png","190","test",",","image-keyboard-response","86","131027","0.0-3.0-1.41","false"
"588","ImagesCoins/10L110.png","188","test",",","image-keyboard-response","88","132128","0.0-3.0-1.42","true"
"2376","ImagesCoins/10L107.5.png","188","test",",","image-keyboard-response","90","135011","0.0-3.0-1.43","true"
"1504","ImagesCoins/10R90.png","188","test",",","image-keyboard-response","92","137020","0.0-3.0-1.44","true"
"2829","ImagesCoins/10L100.png","188","test",".","image-keyboard-response","94","140359","0.0-3.0-1.45","false"
"1670","ImagesCoins/10L102.5.png","188","test",",","image-keyboard-response","96","142546","0.0-3.0-1.46","true"
"682","ImagesCoins/10R110.png","190","test",".","image-keyboard-response","98","143742","0.0-3.0-1.47","true"
"783","ImagesCoins/10L105.png","188","test",",","image-keyboard-response","100","145038","0.0-3.0-1.48","true"
"647","ImagesCoins/10R107.5.png","190","test",".","image-keyboard-response","102","146196","0.0-3.0-1.49","true"
"677","ImagesCoins/10R92.5.png","190","test",",","image-keyboard-response","104","147383","0.0-3.0-1.50","false"
"1107","ImagesCoins/10L90.png","190","test",".","image-keyboard-response","106","149002","0.0-3.0-1.51","true"
"1374","ImagesCoins/10L92.5.png","190","test",".","image-keyboard-response","108","150878","0.0-3.0-1.52","true"
"1056","ImagesCoins/10R95.png","190","test",",","image-keyboard-response","110","152445","0.0-3.0-1.53","false"
"890","ImagesCoins/10L100.png","188","test",".","image-keyboard-response","112","153852","0.0-3.0-1.54","false"
"622","ImagesCoins/10R107.5.png","190","test",".","image-keyboard-response","114","154992","0.0-3.0-1.55","true"
"659","ImagesCoins/10R95.png","190","test",",","image-keyboard-response","116","156168","0.0-3.0-1.56","false"
"1806","ImagesCoins/10R90.png","188","test",",","image-keyboard-response","118","158498","0.0-3.0-1.57","true"
"1455","ImagesCoins/10R92.5.png","188","test",",","image-keyboard-response","120","160466","0.0-3.0-1.58","true"
"578","ImagesCoins/10L92.5.png","190","test",".","image-keyboard-response","122","161555","0.0-3.0-1.59","true"
"922","ImagesCoins/10R105.png","190","test",".","image-keyboard-response","124","162992","0.0-3.0-1.60","true"
"581","ImagesCoins/10R100.png","190","test",".","image-keyboard-response","126","164090","0.0-3.0-1.61","true"
"551","ImagesCoins/10R97.5.png","190","test",",","image-keyboard-response","128","165157","0.0-3.0-1.62","false"
"537","ImagesCoins/10L110.png","188","test",",","image-keyboard-response","130","166210","0.0-3.0-1.63","true"
"579","ImagesCoins/10L105.png","190","test",",","image-keyboard-response","132","167296","0.0-3.0-1.64","false"
"501","ImagesCoins/10R102.5.png","190","test",".","image-keyboard-response","134","168311","0.0-3.0-1.65","true"
"589","ImagesCoins/10L90.png","190","test",".","image-keyboard-response","136","169407","0.0-3.0-1.66","true"
"480","ImagesCoins/10L102.5.png","190","test",",","image-keyboard-response","138","170398","0.0-3.0-1.67","false"
"560","ImagesCoins/10L107.5.png","188","test",",","image-keyboard-response","140","171466","0.0-3.0-1.68","true"
"451","ImagesCoins/10R110.png","190","test",".","image-keyboard-response","142","172423","0.0-3.0-1.69","true"
"928","ImagesCoins/10L97.5.png","188","test",".","image-keyboard-response","144","173869","0.0-3.0-1.70","false"
"1338","ImagesCoins/10L95.png","190","test",".","image-keyboard-response","146","175716","0.0-3.0-1.71","true"
"543","ImagesCoins/10L90.png","190","test",".","image-keyboard-response","148","176761","0.0-3.0-1.72","true"
"299","ImagesCoins/10R95.png","190","test",",","image-keyboard-response","150","177564","0.0-3.0-1.73","false"
"321","ImagesCoins/10L105.png","190","test",",","image-keyboard-response","152","178392","0.0-3.0-1.74","false"
"1158","ImagesCoins/10R97.5.png","188","test",",","image-keyboard-response","154","180070","0.0-3.0-1.75","true"
"449","ImagesCoins/10L97.5.png","190","test",".","image-keyboard-response","156","181027","0.0-3.0-1.76","true"
"621","ImagesCoins/10L110.png","188","test",",","image-keyboard-response","158","182150","0.0-3.0-1.77","true"
"505","ImagesCoins/10R105.png","190","test",".","image-keyboard-response","160","183168","0.0-3.0-1.78","true"
"1071","ImagesCoins/10L102.5.png","188","test",",","image-keyboard-response","162","184754","0.0-3.0-1.79","true"
"468","ImagesCoins/10R110.png","190","test",".","image-keyboard-response","164","185738","0.0-3.0-1.80","true"
"612","ImagesCoins/10L95.png","190","test",".","image-keyboard-response","166","186864","0.0-3.0-1.81","true"
"556","ImagesCoins/10L107.5.png","188","test",",","image-keyboard-response","168","187940","0.0-3.0-1.82","true"
"455","ImagesCoins/10R90.png","190","test",",","image-keyboard-response","170","188909","0.0-3.0-1.83","false"
"619","ImagesCoins/10R92.5.png","190","test",",","image-keyboard-response","172","190045","0.0-3.0-1.84","false"
"698","ImagesCoins/10L100.png","188","test",".","image-keyboard-response","174","191248","0.0-3.0-1.85","false"
"573","ImagesCoins/10R102.5.png","190","test",".","image-keyboard-response","176","192331","0.0-3.0-1.86","true"
"542","ImagesCoins/10R107.5.png","190","test",".","image-keyboard-response","178","193382","0.0-3.0-1.87","true"
"1316","ImagesCoins/10L92.5.png","190","test",".","image-keyboard-response","180","195213","0.0-3.0-1.88","true"
"1352","ImagesCoins/10R100.png","188","test",".","image-keyboard-response","182","197075","0.0-3.0-1.89","false"
"2386","ImagesDirect/VL100.png","188","test",".","image-keyboard-response","184","199975","0.0-4.0-1.0","false"
"2551","ImagesDirect/VL92.5.png","188","test",".","image-keyboard-response","186","203034","0.0-4.0-1.1","false"
"1932","ImagesDirect/VR105.png","190","test",".","image-keyboard-response","188","205474","0.0-4.0-1.2","true"
"2931","ImagesDirect/VR97.5.png","188","test",",","image-keyboard-response","190","208918","0.0-4.0-1.3","true"
"2566","ImagesTennis/TL105.png","188","test",",","image-keyboard-response","192","212007","0.0-4.0-1.4","true"
"1852","ImagesTennis/TL90.png","190","test",".","image-keyboard-response","194","214372","0.0-4.0-1.5","true"
"1976","ImagesTennis/TL102.5.png","188","test",",","image-keyboard-response","196","216859","0.0-4.0-1.6","true"
"1556","ImagesSoccer/VR107.5.png","190","test",".","image-keyboard-response","198","218934","0.0-4.0-1.7","true"
"2158","ImagesTennis/TL92.5.png","190","test",".","image-keyboard-response","200","221603","0.0-4.0-1.8","true"
"1827","ImagesTennis/TR90.png","188","test",",","image-keyboard-response","202","223950","0.0-4.0-1.9","true"
"3170","ImagesDirect/VR100.png","188","test",".","image-keyboard-response","204","227634","0.0-4.0-1.10","false"
"1214","ImagesTennis/TR110.png","190","test",".","image-keyboard-response","206","229361","0.0-4.0-1.11","true"
"1034","ImagesTennis/TL107.5.png","188","test",",","image-keyboard-response","208","230907","0.0-4.0-1.12","true"
"1792","ImagesDirect/VR90.png","188","test",",","image-keyboard-response","210","233203","0.0-4.0-1.13","true"
"2459","ImagesSoccer/VR102.5.png","188","test",".","image-keyboard-response","212","236172","0.0-4.0-1.14","false"
"2320","ImagesDirect/VL97.5.png","188","test",".","image-keyboard-response","214","239013","0.0-4.0-1.15","false"
"2766","ImagesDirect/VL95.png","190","test",".","image-keyboard-response","216","242303","0.0-4.0-1.16","true"
"1324","ImagesTennis/TL95.png","188","test",".","image-keyboard-response","218","244151","0.0-4.0-1.17","false"
"1468","ImagesDirect/VR107.5.png","190","test",".","image-keyboard-response","220","246138","0.0-4.0-1.18","true"
"1285","ImagesTennis/TR92.5.png","190","test",",","image-keyboard-response","222","247939","0.0-4.0-1.19","false"
"1266","ImagesTennis/TR102.5.png","190","test",".","image-keyboard-response","224","249719","0.0-4.0-1.20","true"
"1162","ImagesSoccer/VR90.png","190","test",",","image-keyboard-response","226","251405","0.0-4.0-1.21","false"
"1358","ImagesTennis/TR97.5.png","190","test",",","image-keyboard-response","228","253276","0.0-4.0-1.22","false"
"2037","ImagesTennis/TR100.png","188","test",".","image-keyboard-response","230","255820","0.0-4.0-1.23","false"
"1498","ImagesDirect/VL110.png","188","test",",","image-keyboard-response","232","257823","0.0-4.0-1.24","true"
"1962","ImagesTennis/TR95.png","190","test",",","image-keyboard-response","234","260306","0.0-4.0-1.25","false"
"1048","ImagesSoccer/VL102.5.png","188","test",",","image-keyboard-response","236","261863","0.0-4.0-1.26","true"
"1629","ImagesSoccer/VL90.png","188","test",".","image-keyboard-response","238","264005","0.0-4.0-1.27","false"
"975","ImagesSoccer/VL95.png","188","test",".","image-keyboard-response","240","265491","0.0-4.0-1.28","false"
"1331","ImagesSoccer/VL107.5.png","188","test",",","image-keyboard-response","242","267326","0.0-4.0-1.29","true"
"1366","ImagesSoccer/VR110.png","190","test",".","image-keyboard-response","244","269208","0.0-4.0-1.30","true"
"2193","ImagesDirect/VR95.png","188","test",",","image-keyboard-response","246","271910","0.0-4.0-1.31","true"
"1888","ImagesDirect/VR110.png","190","test",".","image-keyboard-response","248","274309","0.0-4.0-1.32","true"
"1516","ImagesTennis/TL110.png","188","test",",","image-keyboard-response","250","276344","0.0-4.0-1.33","true"
"4978","ImagesSoccer/VR95.png","188","test",",","image-keyboard-response","252","281830","0.0-4.0-1.34","true"
"2462","ImagesTennis/TL100.png","190","test",".","image-keyboard-response","254","284813","0.0-4.0-1.35","true"
"47111","ImagesTennis/TR107.5.png","190","test",".","image-keyboard-response","256","332443","0.0-4.0-1.36","true"
"1784","ImagesDirect/VL107.5.png","188","test",",","image-keyboard-response","258","334741","0.0-4.0-1.37","true"
"1681","ImagesDirect/VL102.5.png","188","test",",","image-keyboard-response","260","336936","0.0-4.0-1.38","true"
"1409","ImagesSoccer/VL97.5.png","188","test",".","image-keyboard-response","262","338853","0.0-4.0-1.39","false"
"1777","ImagesSoccer/VL105.png","188","test",",","image-keyboard-response","264","341148","0.0-4.0-1.40","true"
"1511","ImagesSoccer/VR105.png","190","test",".","image-keyboard-response","266","343182","0.0-4.0-1.41","true"
"1644","ImagesTennis/TL97.5.png","188","test",".","image-keyboard-response","268","345331","0.0-4.0-1.42","false"
"3531","ImagesDirect/VL105.png","188","test",",","image-keyboard-response","270","349374","0.0-4.0-1.43","true"
"3191","ImagesTennis/TR105.png","188","test",".","image-keyboard-response","272","353081","0.0-4.0-1.44","false"
"1207","ImagesSoccer/VL110.png","188","test",",","image-keyboard-response","274","354799","0.0-4.0-1.45","true"
"2673","ImagesDirect/VL90.png","188","test",".","image-keyboard-response","276","357985","0.0-4.0-1.46","false"
"2024","ImagesSoccer/VR100.png","190","test",".","image-keyboard-response","278","360520","0.0-4.0-1.47","true"
"2604","ImagesDirect/VR92.5.png","188","test",",","image-keyboard-response","280","363645","0.0-4.0-1.48","true"
"2963","ImagesSoccer/VR97.5.png","190","test",",","image-keyboard-response","282","367119","0.0-4.0-1.49","false"
"1871","ImagesSoccer/VR92.5.png","188","test",",","image-keyboard-response","284","369512","0.0-4.0-1.50","true"
"5226","ImagesSoccer/VL100.png","188","test",".","image-keyboard-response","286","375252","0.0-4.0-1.51","false"
"2902","ImagesDirect/VR102.5.png","190","test",".","image-keyboard-response","288","378665","0.0-4.0-1.52","true"
"1497","ImagesSoccer/VL92.5.png","188","test",".","image-keyboard-response","290","380664","0.0-4.0-1.53","false"
"750","ImagesTennis/TL95.png","188","test",".","image-keyboard-response","292","381923","0.0-4.0-1.54","false"
"594","ImagesSoccer/VL110.png","188","test",",","image-keyboard-response","294","383031","0.0-4.0-1.55","true"
"895","ImagesDirect/VR92.5.png","188","test",",","image-keyboard-response","296","384432","0.0-4.0-1.56","true"
"861","ImagesSoccer/VR110.png","190","test",".","image-keyboard-response","298","385798","0.0-4.0-1.57","true"
"722","ImagesDirect/VR90.png","188","test",",","image-keyboard-response","300","387037","0.0-4.0-1.58","true"
"1201","ImagesSoccer/VL97.5.png","188","test",".","image-keyboard-response","302","388752","0.0-4.0-1.59","false"
"811","ImagesDirect/VL95.png","190","test",".","image-keyboard-response","304","390076","0.0-4.0-1.60","true"
"784","ImagesDirect/VL107.5.png","188","test",",","image-keyboard-response","306","391377","0.0-4.0-1.61","true"
"1362","ImagesSoccer/VL90.png","190","test",".","image-keyboard-response","308","393252","0.0-4.0-1.62","true"
"1160","ImagesTennis/TR105.png","190","test",".","image-keyboard-response","310","394923","0.0-4.0-1.63","true"
"1322","ImagesSoccer/VL92.5.png","190","test",".","image-keyboard-response","312","396763","0.0-4.0-1.64","true"
"1911","ImagesTennis/TL102.5.png","190","test",",","image-keyboard-response","314","399196","0.0-4.0-1.65","false"
"654","ImagesSoccer/VR105.png","190","test",".","image-keyboard-response","316","400357","0.0-4.0-1.66","true"
"905","ImagesTennis/TR92.5.png","188","test",",","image-keyboard-response","318","401772","0.0-4.0-1.67","true"
"733","ImagesDirect/VL105.png","188","test",",","image-keyboard-response","320","403012","0.0-4.0-1.68","true"
"2340","ImagesTennis/TL92.5.png","188","test",".","image-keyboard-response","322","405859","0.0-4.0-1.69","false"
"1768","ImagesSoccer/VR100.png","190","test",".","image-keyboard-response","324","408143","0.0-4.0-1.70","true"
"1365","ImagesSoccer/VR90.png","188","test",",","image-keyboard-response","326","410019","0.0-4.0-1.71","true"
"644","ImagesDirect/VR110.png","190","test",".","image-keyboard-response","328","411185","0.0-4.0-1.72","true"
"580","ImagesTennis/TL100.png","188","test",".","image-keyboard-response","330","412276","0.0-4.0-1.73","false"
"1794","ImagesTennis/TL97.5.png","190","test",".","image-keyboard-response","332","414582","0.0-4.0-1.74","true"
"1360","ImagesSoccer/VL95.png","188","test",".","image-keyboard-response","334","416458","0.0-4.0-1.75","false"
"490","ImagesSoccer/VR107.5.png","190","test",".","image-keyboard-response","336","417452","0.0-4.0-1.76","true"
"329","ImagesTennis/TR97.5.png","188","test",",","image-keyboard-response","338","418298","0.0-4.0-1.77","true"
"1053","ImagesSoccer/VR102.5.png","190","test",".","image-keyboard-response","340","419856","0.0-4.0-1.78","true"
"782","ImagesTennis/TR100.png","190","test",".","image-keyboard-response","342","421157","0.0-4.0-1.79","true"
"767","ImagesTennis/TR107.5.png","190","test",".","image-keyboard-response","344","422439","0.0-4.0-1.80","true"
"770","ImagesSoccer/VR92.5.png","188","test",",","image-keyboard-response","346","423720","0.0-4.0-1.81","true"
"829","ImagesDirect/VR97.5.png","190","test",",","image-keyboard-response","348","425069","0.0-4.0-1.82","false"
"656","ImagesTennis/TL110.png","188","test",",","image-keyboard-response","350","426240","0.0-4.0-1.83","true"
"1112","ImagesTennis/TL107.5.png","188","test",",","image-keyboard-response","352","427866","0.0-4.0-1.84","true"
"1100","ImagesSoccer/VL100.png","188","test",".","image-keyboard-response","354","429477","0.0-4.0-1.85","false"
"584","ImagesDirect/VL90.png","190","test",".","image-keyboard-response","356","430573","0.0-4.0-1.86","true"
"970","ImagesDirect/VL92.5.png","188","test",".","image-keyboard-response","358","432056","0.0-4.0-1.87","false"
"13462","ImagesDirect/VL110.png","188","test",",","image-keyboard-response","360","446031","0.0-4.0-1.88","true"
"1296","ImagesDirect/VR95.png","188","test",",","image-keyboard-response","362","447838","0.0-4.0-1.89","true"
"993","ImagesSoccer/VL107.5.png","188","test",",","image-keyboard-response","364","449345","0.0-4.0-1.90","true"
"1167","ImagesTennis/TR110.png","190","test",".","image-keyboard-response","366","451018","0.0-4.0-1.91","true"
"1033","ImagesTennis/TL90.png","188","test",".","image-keyboard-response","368","452566","0.0-4.0-1.92","false"
"598","ImagesTennis/TR95.png","190","test",",","image-keyboard-response","370","453683","0.0-4.0-1.93","false"
"850","ImagesSoccer/VL102.5.png","188","test",",","image-keyboard-response","372","455044","0.0-4.0-1.94","true"
"582","ImagesDirect/VL97.5.png","190","test",".","image-keyboard-response","374","456134","0.0-4.0-1.95","true"
"1298","ImagesSoccer/VR95.png","190","test",",","image-keyboard-response","376","457949","0.0-4.0-1.96","false"
"540","ImagesDirect/VR102.5.png","190","test",".","image-keyboard-response","378","459001","0.0-4.0-1.97","true"
"585","ImagesDirect/VR105.png","190","test",".","image-keyboard-response","380","460097","0.0-4.0-1.98","true"
"404","ImagesDirect/VL100.png","190","test",".","image-keyboard-response","382","461011","0.0-4.0-1.99","true"
"805","ImagesSoccer/VL105.png","188","test",",","image-keyboard-response","384","462331","0.0-4.0-1.100","true"
"973","ImagesTennis/TL105.png","188","test",",","image-keyboard-response","386","463820","0.0-4.0-1.101","true"
"605","ImagesSoccer/VR97.5.png","190","test",",","image-keyboard-response","388","464945","0.0-4.0-1.102","false"
"626","ImagesDirect/VR100.png","188","test",".","image-keyboard-response","390","466077","0.0-4.0-1.103","false"
"750","ImagesDirect/VR107.5.png","190","test",".","image-keyboard-response","392","467344","0.0-4.0-1.104","true"
"1077","ImagesTennis/TR102.5.png","188","test",".","image-keyboard-response","394","468939","0.0-4.0-1.105","false"
"894","ImagesTennis/TR90.png","188","test",",","image-keyboard-response","396","470348","0.0-4.0-1.106","true"
"877","ImagesDirect/VL102.5.png","188","test",",","image-keyboard-response","398","471730","0.0-4.0-1.107","true"
"699","ImagesDirect/VL110.png","188","test",",","image-keyboard-response","400","472940","0.0-4.0-1.108","true"
"664","ImagesTennis/TR105.png","190","test",".","image-keyboard-response","402","474106","0.0-4.0-1.109","true"
"505","ImagesTennis/TL100.png","188","test",".","image-keyboard-response","404","475124","0.0-4.0-1.110","false"
"941","ImagesTennis/TL95.png","190","test",".","image-keyboard-response","406","476583","0.0-4.0-1.111","true"
"577","ImagesSoccer/VR102.5.png","188","test",".","image-keyboard-response","408","477663","0.0-4.0-1.112","false"
"901","ImagesDirect/VR95.png","188","test",",","image-keyboard-response","410","479071","0.0-4.0-1.113","true"
"693","ImagesTennis/TR90.png","188","test",",","image-keyboard-response","412","480272","0.0-4.0-1.114","true"
"663","ImagesDirect/VL105.png","188","test",",","image-keyboard-response","414","481441","0.0-4.0-1.115","true"
"950","ImagesSoccer/VR95.png","190","test",",","image-keyboard-response","416","482903","0.0-4.0-1.116","false"
"646","ImagesSoccer/VR92.5.png","188","test",",","image-keyboard-response","418","484056","0.0-4.0-1.117","true"
"758","ImagesSoccer/VL92.5.png","188","test",".","image-keyboard-response","420","485329","0.0-4.0-1.118","false"
"767","ImagesTennis/TR92.5.png","190","test",",","image-keyboard-response","422","486613","0.0-4.0-1.119","false"
"620","ImagesSoccer/VL102.5.png","188","test",",","image-keyboard-response","424","487743","0.0-4.0-1.120","true"
"467","ImagesSoccer/VR90.png","188","test",",","image-keyboard-response","426","488715","0.0-4.0-1.121","true"
"598","ImagesTennis/TR110.png","190","test",".","image-keyboard-response","428","489818","0.0-4.0-1.122","true"
"774","ImagesDirect/VR102.5.png","188","test",".","image-keyboard-response","430","491109","0.0-4.0-1.123","false"
"6067","ImagesDirect/VL107.5.png","188","test",",","image-keyboard-response","432","497688","0.0-4.0-1.124","true"
"138661","ImagesDirect/VR92.5.png","188","test",",","image-keyboard-response","434","636860","0.0-4.0-1.125","true"
"1627","ImagesDirect/VL90.png","190","test",".","image-keyboard-response","436","638998","0.0-4.0-1.126","true"
"886","ImagesTennis/TL102.5.png","188","test",",","image-keyboard-response","438","640389","0.0-4.0-1.127","true"
"1356","ImagesSoccer/VR107.5.png","188","test",".","image-keyboard-response","440","642255","0.0-4.0-1.128","false"
"1325","ImagesTennis/TR102.5.png","188","test",".","image-keyboard-response","442","644084","0.0-4.0-1.129","false"
"727","ImagesTennis/TL107.5.png","188","test",",","image-keyboard-response","444","645321","0.0-4.0-1.130","true"
"664","ImagesTennis/TL90.png","190","test",".","image-keyboard-response","446","646494","0.0-4.0-1.131","true"
"653","ImagesSoccer/VL110.png","188","test",",","image-keyboard-response","448","647658","0.0-4.0-1.132","true"
"920","ImagesTennis/TL110.png","188","test",",","image-keyboard-response","450","649093","0.0-4.0-1.133","true"
"724","ImagesTennis/TR107.5.png","190","test",".","image-keyboard-response","452","650334","0.0-4.0-1.134","true"
"618","ImagesSoccer/VR100.png","188","test",".","image-keyboard-response","454","651469","0.0-4.0-1.135","false"
"669","ImagesSoccer/VR110.png","190","test",".","image-keyboard-response","456","652650","0.0-4.0-1.136","true"
"757","ImagesTennis/TL92.5.png","188","test",".","image-keyboard-response","458","653911","0.0-4.0-1.137","false"
"1130","ImagesDirect/VL92.5.png","188","test",".","image-keyboard-response","460","655547","0.0-4.0-1.138","false"
"795","ImagesDirect/VL102.5.png","188","test",",","image-keyboard-response","462","656856","0.0-4.0-1.139","true"
"960","ImagesSoccer/VL97.5.png","190","test",".","image-keyboard-response","464","658330","0.0-4.0-1.140","true"
"535","ImagesDirect/VR107.5.png","190","test",".","image-keyboard-response","466","659371","0.0-4.0-1.141","true"
"362","ImagesTennis/TR97.5.png","188","test",",","image-keyboard-response","468","660253","0.0-4.0-1.142","true"
"516","ImagesDirect/VR105.png","190","test",".","image-keyboard-response","470","661283","0.0-4.0-1.143","true"
"702","ImagesSoccer/VR97.5.png","190","test",",","image-keyboard-response","472","662496","0.0-4.0-1.144","false"
"1076","ImagesTennis/TR95.png","188","test",",","image-keyboard-response","474","664086","0.0-4.0-1.145","true"
"795","ImagesSoccer/VL90.png","188","test",".","image-keyboard-response","476","665393","0.0-4.0-1.146","false"
"817","ImagesDirect/VL97.5.png","188","test",".","image-keyboard-response","478","666724","0.0-4.0-1.147","false"
"626","ImagesTennis/TL105.png","188","test",",","image-keyboard-response","480","667858","0.0-4.0-1.148","true"
"875","ImagesDirect/VR90.png","188","test",",","image-keyboard-response","482","669244","0.0-4.0-1.149","true"
"536","ImagesSoccer/VR105.png","190","test",".","image-keyboard-response","484","670295","0.0-4.0-1.150","true"
"487","ImagesDirect/VL95.png","188","test",".","image-keyboard-response","486","671285","0.0-4.0-1.151","false"
"564","ImagesSoccer/VL107.5.png","188","test",",","image-keyboard-response","488","672357","0.0-4.0-1.152","true"
"824","ImagesSoccer/VL105.png","188","test",",","image-keyboard-response","490","673689","0.0-4.0-1.153","true"
"836","ImagesDirect/VR100.png","188","test",".","image-keyboard-response","492","675041","0.0-4.0-1.154","false"
"379","ImagesSoccer/VL95.png","188","test",".","image-keyboard-response","494","675935","0.0-4.0-1.155","false"
"601","ImagesDirect/VL100.png","190","test",".","image-keyboard-response","496","677049","0.0-4.0-1.156","true"
"623","ImagesTennis/TL97.5.png","188","test",".","image-keyboard-response","498","678180","0.0-4.0-1.157","false"
"1080","ImagesDirect/VR97.5.png","188","test",",","image-keyboard-response","500","679770","0.0-4.0-1.158","true"
"612","ImagesSoccer/VL100.png","188","test",".","image-keyboard-response","502","680893","0.0-4.0-1.159","false"
"653","ImagesDirect/VR110.png","190","test",".","image-keyboard-response","504","682061","0.0-4.0-1.160","true"
"606","ImagesTennis/TR100.png","188","test",".","image-keyboard-response","506","683177","0.0-4.0-1.161","false"
"616","ImagesTennis/TR97.5.png","190","test",",","image-keyboard-response","508","684306","0.0-4.0-1.162","false"
"1147","ImagesDirect/VR105.png","188","test",".","image-keyboard-response","510","685963","0.0-4.0-1.163","false"
"761","ImagesDirect/VR92.5.png","188","test",",","image-keyboard-response","512","687240","0.0-4.0-1.164","true"
"527","ImagesTennis/TR107.5.png","190","test",".","image-keyboard-response","514","688272","0.0-4.0-1.165","true"
"498","ImagesTennis/TL102.5.png","188","test",",","image-keyboard-response","516","689283","0.0-4.0-1.166","true"
"845","ImagesDirect/VL90.png","188","test",".","image-keyboard-response","518","690635","0.0-4.0-1.167","false"
"602","ImagesDirect/VL110.png","188","test",",","image-keyboard-response","520","691752","0.0-4.0-1.168","true"
"569","ImagesTennis/TL110.png","188","test",",","image-keyboard-response","522","692835","0.0-4.0-1.169","true"
"841","ImagesTennis/TR92.5.png","188","test",",","image-keyboard-response","524","694185","0.0-4.0-1.170","true"
"522","ImagesTennis/TL100.png","188","test",".","image-keyboard-response","526","695224","0.0-4.0-1.171","false"
"761","ImagesDirect/VL95.png","188","test",".","image-keyboard-response","528","696498","0.0-4.0-1.172","false"
"1957","ImagesSoccer/VL90.png","188","test",".","image-keyboard-response","530","698973","0.0-4.0-1.173","false"
"670","ImagesDirect/VL107.5.png","188","test",",","image-keyboard-response","532","700165","0.0-4.0-1.174","true"
"406","ImagesSoccer/VL92.5.png","188","test",".","image-keyboard-response","534","701086","0.0-4.0-1.175","false"
"428","ImagesTennis/TL92.5.png","188","test",".","image-keyboard-response","536","702017","0.0-4.0-1.176","false"
"715","ImagesSoccer/VR95.png","188","test",",","image-keyboard-response","538","703238","0.0-4.0-1.177","true"
"656","ImagesTennis/TL90.png","188","test",".","image-keyboard-response","540","704411","0.0-4.0-1.178","false"
"879","ImagesDirect/VR107.5.png","188","test",".","image-keyboard-response","542","705799","0.0-4.0-1.179","false"
"491","ImagesTennis/TL97.5.png","188","test",".","image-keyboard-response","544","706807","0.0-4.0-1.180","false"
"551","ImagesDirect/VR90.png","188","test",",","image-keyboard-response","546","707863","0.0-4.0-1.181","true"
"475","ImagesSoccer/VL105.png","188","test",",","image-keyboard-response","548","708853","0.0-4.0-1.182","true"
"432","ImagesSoccer/VR110.png","190","test",".","image-keyboard-response","550","709798","0.0-4.0-1.183","true"
"766","ImagesTennis/TR100.png","188","test",".","image-keyboard-response","552","711077","0.0-4.0-1.184","false"
"652","ImagesDirect/VL105.png","188","test",",","image-keyboard-response","554","712242","0.0-4.0-1.185","true"
"689","ImagesTennis/TR90.png","188","test",",","image-keyboard-response","556","713443","0.0-4.0-1.186","true"
"564","ImagesTennis/TR105.png","188","test",".","image-keyboard-response","558","714522","0.0-4.0-1.187","false"
"811","ImagesSoccer/VR90.png","188","test",",","image-keyboard-response","560","715848","0.0-4.0-1.188","true"
"566","ImagesSoccer/VR105.png","190","test",".","image-keyboard-response","562","716923","0.0-4.0-1.189","true"
"886","ImagesTennis/TR95.png","188","test",",","image-keyboard-response","564","718321","0.0-4.0-1.190","true"
"716","ImagesSoccer/VR107.5.png","190","test",".","image-keyboard-response","566","719550","0.0-4.0-1.191","true"
"566","ImagesSoccer/VR97.5.png","188","test",",","image-keyboard-response","568","720621","0.0-4.0-1.192","true"
"611","ImagesSoccer/VL110.png","188","test",",","image-keyboard-response","570","721744","0.0-4.0-1.193","true"
"646","ImagesSoccer/VL102.5.png","188","test",",","image-keyboard-response","572","722908","0.0-4.0-1.194","true"
"1468","ImagesDirect/VL100.png","188","test",".","image-keyboard-response","574","724890","0.0-4.0-1.195","false"
"4065","ImagesSoccer/VL95.png","190","test",".","image-keyboard-response","576","729475","0.0-4.0-1.196","true"
"1746","ImagesDirect/VR100.png","190","test",".","image-keyboard-response","578","731738","0.0-4.0-1.197","true"
"1076","ImagesSoccer/VR92.5.png","188","test",",","image-keyboard-response","580","733327","0.0-4.0-1.198","true"
"792","ImagesDirect/VR110.png","190","test",".","image-keyboard-response","582","734622","0.0-4.0-1.199","true"
"1184","ImagesTennis/TL105.png","190","test",",","image-keyboard-response","584","736323","0.0-4.0-1.200","false"
"1281","ImagesSoccer/VR102.5.png","190","test",".","image-keyboard-response","586","738113","0.0-4.0-1.201","true"
"3659","ImagesDirect/VL92.5.png","190","test",".","image-keyboard-response","588","742279","0.0-4.0-1.202","true"
"1075","ImagesDirect/VL97.5.png","188","test",".","image-keyboard-response","590","743867","0.0-4.0-1.203","false"
"1213","ImagesSoccer/VL100.png","188","test",".","image-keyboard-response","592","745594","0.0-4.0-1.204","false"
"1655","ImagesDirect/VR102.5.png","188","test",".","image-keyboard-response","594","747755","0.0-4.0-1.205","false"
"1997","ImagesTennis/TL95.png","188","test",".","image-keyboard-response","596","750263","0.0-4.0-1.206","false"
"2949","ImagesDirect/VR97.5.png","188","test",",","image-keyboard-response","598","753727","0.0-4.0-1.207","true"
"1510","ImagesSoccer/VR100.png","188","test",".","image-keyboard-response","600","755752","0.0-4.0-1.208","false"
"1756","ImagesTennis/TR110.png","190","test",".","image-keyboard-response","602","758017","0.0-4.0-1.209","true"
"644","ImagesDirect/VL102.5.png","188","test",",","image-keyboard-response","604","759177","0.0-4.0-1.210","true"
"1673","ImagesDirect/VR95.png","188","test",",","image-keyboard-response","606","761367","0.0-4.0-1.211","true"
"1009","ImagesTennis/TL107.5.png","188","test",",","image-keyboard-response","608","762892","0.0-4.0-1.212","true"
"1210","ImagesTennis/TR102.5.png","188","test",".","image-keyboard-response","610","764620","0.0-4.0-1.213","false"
"911","ImagesSoccer/VL107.5.png","188","test",",","image-keyboard-response","612","766032","0.0-4.0-1.214","true"
"1263","ImagesSoccer/VL97.5.png","188","test",".","image-keyboard-response","614","767812","0.0-4.0-1.215","false"
"924","ImagesDirect/VL100.png","188","test",".","image-keyboard-response","616","769253","0.0-4.0-1.216","false"
"1687","ImagesDirect/VR105.png","190","test",".","image-keyboard-response","618","771443","0.0-4.0-1.217","true"
"1037","ImagesDirect/VR95.png","188","test",",","image-keyboard-response","620","772986","0.0-4.0-1.218","true"
"805","ImagesSoccer/VL107.5.png","188","test",",","image-keyboard-response","622","774307","0.0-4.0-1.219","true"
"2199","ImagesSoccer/VR102.5.png","188","test",".","image-keyboard-response","624","777009","0.0-4.0-1.220","false"
"861","ImagesTennis/TR90.png","188","test",",","image-keyboard-response","626","778382","0.0-4.0-1.221","true"
"1168","ImagesTennis/TL97.5.png","188","test",".","image-keyboard-response","628","780058","0.0-4.0-1.222","false"
"1146","ImagesTennis/TR100.png","188","test",".","image-keyboard-response","630","781717","0.0-4.0-1.223","false"
"869","ImagesSoccer/VR105.png","190","test",".","image-keyboard-response","632","783093","0.0-4.0-1.224","true"
"890","ImagesDirect/VR107.5.png","190","test",".","image-keyboard-response","634","784489","0.0-4.0-1.225","true"
"538","ImagesTennis/TR95.png","190","test",",","image-keyboard-response","636","785543","0.0-4.0-1.226","false"
"660","ImagesSoccer/VL110.png","188","test",",","image-keyboard-response","638","786718","0.0-4.0-1.227","true"
"579","ImagesDirect/VL110.png","188","test",",","image-keyboard-response","640","787808","0.0-4.0-1.228","true"
"758","ImagesDirect/VL105.png","188","test",",","image-keyboard-response","642","789076","0.0-4.0-1.229","true"
"1122","ImagesTennis/TR102.5.png","188","test",".","image-keyboard-response","644","790711","0.0-4.0-1.230","false"
"557","ImagesDirect/VL102.5.png","188","test",",","image-keyboard-response","646","791774","0.0-4.0-1.231","true"
"742","ImagesTennis/TR110.png","190","test",".","image-keyboard-response","648","793031","0.0-4.0-1.232","true"
"1035","ImagesTennis/TR92.5.png","188","test",",","image-keyboard-response","650","794579","0.0-4.0-1.233","true"
"1469","ImagesSoccer/VL97.5.png","188","test",".","image-keyboard-response","652","796558","0.0-4.0-1.234","false"
"999","ImagesSoccer/VR95.png","188","test",",","image-keyboard-response","654","798069","0.0-4.0-1.235","true"
"926","ImagesSoccer/VR90.png","188","test",",","image-keyboard-response","656","799515","0.0-4.0-1.236","true"
"1007","ImagesSoccer/VL92.5.png","188","test",".","image-keyboard-response","658","801037","0.0-4.0-1.237","false"
"852","ImagesTennis/TL102.5.png","188","test",",","image-keyboard-response","660","802402","0.0-4.0-1.238","true"
"1000","ImagesTennis/TL92.5.png","188","test",".","image-keyboard-response","662","803913","0.0-4.0-1.239","false"
"1089","ImagesDirect/VL90.png","188","test",".","image-keyboard-response","664","805510","0.0-4.0-1.240","false"
"754","ImagesTennis/TL110.png","188","test",",","image-keyboard-response","666","806776","0.0-4.0-1.241","true"
"635","ImagesTennis/TL107.5.png","188","test",",","image-keyboard-response","668","807918","0.0-4.0-1.242","true"
"1656","ImagesDirect/VR92.5.png","188","test",",","image-keyboard-response","670","810077","0.0-4.0-1.243","true"
"1140","ImagesSoccer/VR92.5.png","188","test",",","image-keyboard-response","672","811726","0.0-4.0-1.244","true"
"533","ImagesDirect/VL92.5.png","190","test",".","image-keyboard-response","674","812762","0.0-4.0-1.245","true"
"611","ImagesDirect/VL107.5.png","188","test",",","image-keyboard-response","676","813879","0.0-4.0-1.246","true"
"1143","ImagesDirect/VR97.5.png","190","test",",","image-keyboard-response","678","815532","0.0-4.0-1.247","false"
"812","ImagesTennis/TL95.png","188","test",".","image-keyboard-response","680","816861","0.0-4.0-1.248","false"
"741","ImagesSoccer/VL105.png","188","test",",","image-keyboard-response","682","818110","0.0-4.0-1.249","true"
"1271","ImagesDirect/VR100.png","190","test",".","image-keyboard-response","684","819892","0.0-4.0-1.250","true"
"1026","ImagesSoccer/VL102.5.png","188","test",",","image-keyboard-response","686","821437","0.0-4.0-1.251","true"
"888","ImagesDirect/VR90.png","188","test",",","image-keyboard-response","688","822840","0.0-4.0-1.252","true"
"591","ImagesTennis/TR107.5.png","190","test",".","image-keyboard-response","690","823937","0.0-4.0-1.253","true"
"799","ImagesSoccer/VR100.png","190","test",".","image-keyboard-response","692","825238","0.0-4.0-1.254","true"
"541","ImagesSoccer/VR97.5.png","190","test",",","image-keyboard-response","694","826292","0.0-4.0-1.255","false"
"1110","ImagesTennis/TL90.png","188","test",".","image-keyboard-response","696","827908","0.0-4.0-1.256","false"
"707","ImagesSoccer/VL100.png","188","test",".","image-keyboard-response","698","829132","0.0-4.0-1.257","false"
"1210","ImagesDirect/VR102.5.png","190","test",".","image-keyboard-response","700","830857","0.0-4.0-1.258","true"
"1019","ImagesTennis/TR97.5.png","188","test",",","image-keyboard-response","702","832384","0.0-4.0-1.259","true"
"1485","ImagesTennis/TR105.png","190","test",".","image-keyboard-response","704","834381","0.0-4.0-1.260","true"
"1136","ImagesTennis/TL105.png","188","test",",","image-keyboard-response","706","836036","0.0-4.0-1.261","true"
"1047","ImagesTennis/TL100.png","188","test",".","image-keyboard-response","708","837593","0.0-4.0-1.262","false"
"1479","ImagesSoccer/VL95.png","190","test",".","image-keyboard-response","710","839577","0.0-4.0-1.263","true"
"744","ImagesDirect/VR110.png","190","test",".","image-keyboard-response","712","840828","0.0-4.0-1.264","true"
"1047","ImagesDirect/VL97.5.png","188","test",".","image-keyboard-response","714","842384","0.0-4.0-1.265","false"
"791","ImagesSoccer/VR110.png","190","test",".","image-keyboard-response","716","843681","0.0-4.0-1.266","true"
"1597","ImagesDirect/VL95.png","188","test",".","image-keyboard-response","718","845789","0.0-4.0-1.267","false"
"1688","ImagesSoccer/VR107.5.png","190","test",".","image-keyboard-response","720","847986","0.0-4.0-1.268","true"
"1861","ImagesSoccer/VL90.png","190","test",".","image-keyboard-response","722","850357","0.0-4.0-1.269","true"
