"rt","stimulus","key_press","test_part","correct_response","trial_type","trial_index","time_elapsed","internal_node_id","correct"
"1107","ImagesSoccer/VL102.5.png","188","test",",","image-keyboard-response","4","33687","0.0-3.0-1.0","true"
"1211","ImagesTennis/TL110.png","188","test",",","image-keyboard-response","6","35403","0.0-3.0-1.1","true"
"1281","ImagesDirect/VL102.5.png","188","test",",","image-keyboard-response","8","37187","0.0-3.0-1.2","true"
"868","ImagesSoccer/VR110.png","190","test",".","image-keyboard-response","10","38557","0.0-3.0-1.3","true"
"1172","ImagesTennis/TR97.5.png","190","test",",","image-keyboard-response","12","40235","0.0-3.0-1.4","false"
"633","ImagesSoccer/VL100.png","188","test",".","image-keyboard-response","14","41370","0.0-3.0-1.5","false"
"1022","ImagesDirect/VR102.5.png","188","test",".","image-keyboard-response","16","42899","0.0-3.0-1.6","false"
"841","ImagesTennis/TL97.5.png","188","test",".","image-keyboard-response","18","44242","0.0-3.0-1.7","false"
"597","ImagesSoccer/VL105.png","188","test",",","image-keyboard-response","20","45341","0.0-3.0-1.8","true"
"680","ImagesDirect/VR92.5.png","190","test",",","image-keyboard-response","22","46525","0.0-3.0-1.9","false"
"874","ImagesTennis/TL105.png","188","test",",","image-keyboard-response","24","47905","0.0-3.0-1.10","true"
"758","ImagesSoccer/VR97.5.png","190","test",",","image-keyboard-response","26","49166","0.0-3.0-1.11","false"
"966","ImagesSoccer/VR90.png","190","test",",","image-keyboard-response","28","50637","0.0-3.0-1.12","false"
"1352","ImagesDirect/VR105.png","190","test",".","image-keyboard-response","30","52491","0.0-3.0-1.13","true"
"899","ImagesTennis/TR95.png","190","test",",","image-keyboard-response","32","53894","0.0-3.0-1.14","false"
"599","ImagesSoccer/VR100.png","190","test",".","image-keyboard-response","34","54998","0.0-3.0-1.15","true"
"548","ImagesTennis/TR102.5.png","190","test",".","image-keyboard-response","36","56048","0.0-3.0-1.16","true"
"640","ImagesTennis/TR107.5.png","190","test",".","image-keyboard-response","38","57190","0.0-3.0-1.17","true"
"749","ImagesTennis/TL107.5.png","188","test",",","image-keyboard-response","40","58445","0.0-3.0-1.18","true"
"1017","ImagesSoccer/VL110.png","188","test",",","image-keyboard-response","42","59967","0.0-3.0-1.19","true"
"548","ImagesSoccer/VL107.5.png","188","test",",","image-keyboard-response","44","61016","0.0-3.0-1.20","true"
"1686","ImagesDirect/VL90.png","190","test",".","image-keyboard-response","46","63203","0.0-3.0-1.21","true"
"1011","ImagesSoccer/VL95.png","188","test",".","image-keyboard-response","48","64716","0.0-3.0-1.22","false"
"668","ImagesDirect/VR110.png","190","test",".","image-keyboard-response","50","65891","0.0-3.0-1.23","true"
"753","ImagesDirect/VR95.png","190","test",",","image-keyboard-response","52","67146","0.0-3.0-1.24","false"
"602","ImagesTennis/TL102.5.png","188","test",",","image-keyboard-response","54","68253","0.0-3.0-1.25","true"
"660","ImagesDirect/VR90.png","190","test",",","image-keyboard-response","56","69417","0.0-3.0-1.26","false"
"1188","ImagesDirect/VL92.5.png","190","test",".","image-keyboard-response","58","71112","0.0-3.0-1.27","true"
"1127","ImagesDirect/VL100.png","188","test",".","image-keyboard-response","60","72742","0.0-3.0-1.28","false"
"1044","ImagesTennis/TL95.png","190","test",".","image-keyboard-response","62","74287","0.0-3.0-1.29","true"
"627","ImagesTennis/TL90.png","190","test",".","image-keyboard-response","64","75416","0.0-3.0-1.30","true"
"676","ImagesDirect/VL107.5.png","188","test",",","image-keyboard-response","66","76598","0.0-3.0-1.31","true"
"753","ImagesTennis/TR105.png","190","test",".","image-keyboard-response","68","77857","0.0-3.0-1.32","true"
"616","ImagesSoccer/VR92.5.png","190","test",",","image-keyboard-response","70","78980","0.0-3.0-1.33","false"
"690","ImagesTennis/TR110.png","190","test",".","image-keyboard-response","72","80172","0.0-3.0-1.34","true"
"612","ImagesDirect/VL110.png","188","test",",","image-keyboard-response","74","81286","0.0-3.0-1.35","true"
"1362","ImagesTennis/TR92.5.png","188","test",",","image-keyboard-response","76","83149","0.0-3.0-1.36","true"
"687","ImagesSoccer/VL92.5.png","188","test",".","image-keyboard-response","78","84340","0.0-3.0-1.37","false"
"693","ImagesTennis/TL92.5.png","188","test",".","image-keyboard-response","80","85540","0.0-3.0-1.38","false"
"740","ImagesDirect/VL105.png","188","test",",","image-keyboard-response","82","86785","0.0-3.0-1.39","true"
"700","ImagesDirect/VR100.png","190","test",".","image-keyboard-response","84","87986","0.0-3.0-1.40","true"
"487","ImagesSoccer/VR107.5.png","190","test",".","image-keyboard-response","86","88975","0.0-3.0-1.41","true"
"455","ImagesSoccer/VR105.png","190","test",".","image-keyboard-response","88","89932","0.0-3.0-1.42","true"
"648","ImagesSoccer/VL97.5.png","188","test",".","image-keyboard-response","90","91083","0.0-3.0-1.43","false"
"732","ImagesDirect/VR97.5.png","190","test",",","image-keyboard-response","92","92317","0.0-3.0-1.44","false"
"1117","ImagesTennis/TR100.png","190","test",".","image-keyboard-response","94","93941","0.0-3.0-1.45","true"
"706","ImagesDirect/VR107.5.png","190","test",".","image-keyboard-response","96","95149","0.0-3.0-1.46","true"
"622","ImagesSoccer/VL90.png","188","test",".","image-keyboard-response","98","96276","0.0-3.0-1.47","false"
"672","ImagesDirect/VL97.5.png","188","test",".","image-keyboard-response","100","97449","0.0-3.0-1.48","false"
"633","ImagesSoccer/VR95.png","190","test",",","image-keyboard-response","102","98585","0.0-3.0-1.49","false"
"614","ImagesSoccer/VR102.5.png","190","test",".","image-keyboard-response","104","99705","0.0-3.0-1.50","true"
"1031","ImagesDirect/VL95.png","188","test",".","image-keyboard-response","106","101237","0.0-3.0-1.51","false"
"1026","ImagesTennis/TL100.png","190","test",".","image-keyboard-response","108","102764","0.0-3.0-1.52","true"
"1754","ImagesTennis/TR90.png","190","test",",","image-keyboard-response","110","105020","0.0-3.0-1.53","false"
"941","ImagesTennis/TR90.png","190","test",",","image-keyboard-response","112","106466","0.0-3.0-1.54","false"
"753","ImagesDirect/VR95.png","190","test",",","image-keyboard-response","114","107725","0.0-3.0-1.55","false"
"489","ImagesSoccer/VR95.png","190","test",",","image-keyboard-response","116","108717","0.0-3.0-1.56","false"
"1187","ImagesDirect/VR102.5.png","190","test",".","image-keyboard-response","118","110407","0.0-3.0-1.57","true"
"1015","ImagesDirect/VL100.png","188","test",".","image-keyboard-response","120","111927","0.0-3.0-1.58","false"
"810","ImagesTennis/TL97.5.png","190","test",".","image-keyboard-response","122","113239","0.0-3.0-1.59","true"
"1268","ImagesSoccer/VL97.5.png","188","test",".","image-keyboard-response","124","115008","0.0-3.0-1.60","false"
"1585","ImagesDirect/VL95.png","190","test",".","image-keyboard-response","126","117094","0.0-3.0-1.61","true"
"603","ImagesDirect/VL97.5.png","188","test",".","image-keyboard-response","128","118203","0.0-3.0-1.62","false"
"1165","ImagesTennis/TR97.5.png","190","test",",","image-keyboard-response","130","119870","0.0-3.0-1.63","false"
"701","ImagesTennis/TR92.5.png","190","test",",","image-keyboard-response","132","121074","0.0-3.0-1.64","false"
"694","ImagesDirect/VL105.png","188","test",",","image-keyboard-response","134","122273","0.0-3.0-1.65","true"
"538","ImagesDirect/VL110.png","188","test",",","image-keyboard-response","136","123312","0.0-3.0-1.66","true"
"554","ImagesSoccer/VR92.5.png","190","test",",","image-keyboard-response","138","124371","0.0-3.0-1.67","false"
"1038","ImagesSoccer/VL90.png","188","test",".","image-keyboard-response","140","125913","0.0-3.0-1.68","false"
"576","ImagesSoccer/VL92.5.png","188","test",".","image-keyboard-response","142","126990","0.0-3.0-1.69","false"
"1075","ImagesDirect/VL92.5.png","190","test",".","image-keyboard-response","144","128567","0.0-3.0-1.70","true"
"885","ImagesTennis/TL107.5.png","188","test",",","image-keyboard-response","146","129958","0.0-3.0-1.71","true"
"667","ImagesTennis/TR102.5.png","190","test",".","image-keyboard-response","148","131128","0.0-3.0-1.72","true"
"585","ImagesDirect/VR107.5.png","190","test",".","image-keyboard-response","150","132216","0.0-3.0-1.73","true"
"729","ImagesDirect/VR97.5.png","190","test",",","image-keyboard-response","152","133451","0.0-3.0-1.74","false"
"918","ImagesSoccer/VR105.png","190","test",".","image-keyboard-response","154","134872","0.0-3.0-1.75","true"
"563","ImagesSoccer/VL107.5.png","188","test",",","image-keyboard-response","156","135937","0.0-3.0-1.76","true"
"464","ImagesSoccer/VR102.5.png","190","test",".","image-keyboard-response","158","136904","0.0-3.0-1.77","true"
"917","ImagesTennis/TR95.png","190","test",",","image-keyboard-response","160","138323","0.0-3.0-1.78","false"
"576","ImagesDirect/VR100.png","190","test",".","image-keyboard-response","162","139405","0.0-3.0-1.79","true"
"754","ImagesTennis/TL92.5.png","190","test",".","image-keyboard-response","164","140665","0.0-3.0-1.80","true"
"535","ImagesDirect/VR110.png","190","test",".","image-keyboard-response","166","141706","0.0-3.0-1.81","true"
"931","ImagesTennis/TL110.png","188","test",",","image-keyboard-response","168","143141","0.0-3.0-1.82","true"
"541","ImagesSoccer/VL105.png","188","test",",","image-keyboard-response","170","144184","0.0-3.0-1.83","true"
"525","ImagesSoccer/VR97.5.png","190","test",",","image-keyboard-response","172","145215","0.0-3.0-1.84","false"
"868","ImagesTennis/TL95.png","190","test",".","image-keyboard-response","174","146585","0.0-3.0-1.85","true"
"1269","ImagesTennis/TL100.png","190","test",".","image-keyboard-response","176","148355","0.0-3.0-1.86","true"
"1520","ImagesDirect/VL90.png","190","test",".","image-keyboard-response","178","150381","0.0-3.0-1.87","true"
"673","ImagesTennis/TL90.png","190","test",".","image-keyboard-response","180","151557","0.0-3.0-1.88","true"
"632","ImagesTennis/TR105.png","190","test",".","image-keyboard-response","182","152691","0.0-3.0-1.89","true"
"414","ImagesTennis/TR110.png","190","test",".","image-keyboard-response","184","153612","0.0-3.0-1.90","true"
"1430","ImagesDirect/VL102.5.png","188","test",",","image-keyboard-response","186","155548","0.0-3.0-1.91","true"
"666","ImagesDirect/VR105.png","190","test",".","image-keyboard-response","188","156716","0.0-3.0-1.92","true"
"794","ImagesSoccer/VL110.png","188","test",",","image-keyboard-response","190","158014","0.0-3.0-1.93","true"
"554","ImagesSoccer/VL100.png","188","test",".","image-keyboard-response","192","159073","0.0-3.0-1.94","false"
"1270","ImagesTennis/TL102.5.png","190","test",",","image-keyboard-response","194","160844","0.0-3.0-1.95","false"
"651","ImagesTennis/TR107.5.png","190","test",".","image-keyboard-response","196","161996","0.0-3.0-1.96","true"
"505","ImagesSoccer/VR107.5.png","190","test",".","image-keyboard-response","198","163002","0.0-3.0-1.97","true"
"423","ImagesSoccer/VR110.png","190","test",".","image-keyboard-response","200","163927","0.0-3.0-1.98","true"
"454","ImagesSoccer/VR90.png","190","test",",","image-keyboard-response","202","164882","0.0-3.0-1.99","false"
"590","ImagesTennis/TL105.png","188","test",",","image-keyboard-response","204","165974","0.0-3.0-1.100","true"
"578","ImagesSoccer/VL95.png","188","test",".","image-keyboard-response","206","167053","0.0-3.0-1.101","false"
"573","ImagesDirect/VR90.png","190","test",",","image-keyboard-response","208","168130","0.0-3.0-1.102","false"
"574","ImagesSoccer/VL102.5.png","188","test",",","image-keyboard-response","210","169209","0.0-3.0-1.103","true"
"480","ImagesTennis/TR100.png","190","test",".","image-keyboard-response","212","170196","0.0-3.0-1.104","true"
"586","ImagesDirect/VR92.5.png","190","test",",","image-keyboard-response","214","171285","0.0-3.0-1.105","false"
"621","ImagesDirect/VL107.5.png","188","test",",","image-keyboard-response","216","172408","0.0-3.0-1.106","true"
"453","ImagesSoccer/VR100.png","190","test",".","image-keyboard-response","218","173367","0.0-3.0-1.107","true"
"568","ImagesSoccer/VL90.png","188","test",".","image-keyboard-response","220","174441","0.0-3.0-1.108","false"
"536","ImagesSoccer/VR92.5.png","190","test",",","image-keyboard-response","222","175483","0.0-3.0-1.109","false"
"596","ImagesDirect/VR90.png","190","test",",","image-keyboard-response","224","176585","0.0-3.0-1.110","false"
"620","ImagesTennis/TL102.5.png","188","test",",","image-keyboard-response","226","177710","0.0-3.0-1.111","true"
"591","ImagesDirect/VL107.5.png","188","test",",","image-keyboard-response","228","178806","0.0-3.0-1.112","true"
"551","ImagesTennis/TL92.5.png","190","test",".","image-keyboard-response","230","179860","0.0-3.0-1.113","true"
"549","ImagesSoccer/VL102.5.png","188","test",",","image-keyboard-response","232","180911","0.0-3.0-1.114","true"
"586","ImagesDirect/VL105.png","188","test",",","image-keyboard-response","234","182001","0.0-3.0-1.115","true"
"434","ImagesSoccer/VR110.png","190","test",".","image-keyboard-response","236","182936","0.0-3.0-1.116","true"
"477","ImagesDirect/VR95.png","190","test",",","image-keyboard-response","238","183915","0.0-3.0-1.117","false"
"589","ImagesSoccer/VL107.5.png","188","test",",","image-keyboard-response","240","185008","0.0-3.0-1.118","true"
"400","ImagesSoccer/VL100.png","188","test",".","image-keyboard-response","242","185909","0.0-3.0-1.119","false"
"486","ImagesSoccer/VL97.5.png","188","test",".","image-keyboard-response","244","186896","0.0-3.0-1.120","false"
"672","ImagesTennis/TL95.png","190","test",".","image-keyboard-response","246","188074","0.0-3.0-1.121","true"
"548","ImagesSoccer/VL92.5.png","188","test",".","image-keyboard-response","248","189123","0.0-3.0-1.122","false"
"470","ImagesDirect/VR110.png","190","test",".","image-keyboard-response","250","190096","0.0-3.0-1.123","true"
"527","ImagesSoccer/VL110.png","188","test",",","image-keyboard-response","252","191127","0.0-3.0-1.124","true"
"401","ImagesSoccer/VL105.png","188","test",",","image-keyboard-response","254","192030","0.0-3.0-1.125","true"
"506","ImagesTennis/TR97.5.png","190","test",",","image-keyboard-response","256","193039","0.0-3.0-1.126","false"
"488","ImagesTennis/TL110.png","188","test",",","image-keyboard-response","258","194030","0.0-3.0-1.127","true"
"457","ImagesTennis/TL107.5.png","188","test",",","image-keyboard-response","260","194989","0.0-3.0-1.128","true"
"447","ImagesTennis/TR110.png","190","test",".","image-keyboard-response","262","195938","0.0-3.0-1.129","true"
"434","ImagesSoccer/VR100.png","190","test",".","image-keyboard-response","264","196876","0.0-3.0-1.130","true"
"488","ImagesDirect/VR105.png","190","test",".","image-keyboard-response","266","197869","0.0-3.0-1.131","true"
"370","ImagesDirect/VR102.5.png","190","test",".","image-keyboard-response","268","198740","0.0-3.0-1.132","true"
"313","ImagesTennis/TL100.png","190","test",".","image-keyboard-response","270","199556","0.0-3.0-1.133","true"
"551","ImagesDirect/VL97.5.png","188","test",".","image-keyboard-response","272","200613","0.0-3.0-1.134","false"
"464","ImagesDirect/VL100.png","188","test",".","image-keyboard-response","274","201584","0.0-3.0-1.135","false"
"596","ImagesTennis/TL105.png","190","test",",","image-keyboard-response","276","202681","0.0-3.0-1.136","false"
"488","ImagesSoccer/VL95.png","188","test",".","image-keyboard-response","278","203672","0.0-3.0-1.137","false"
"469","ImagesTennis/TR105.png","190","test",".","image-keyboard-response","280","204646","0.0-3.0-1.138","true"
"374","ImagesSoccer/VR102.5.png","190","test",".","image-keyboard-response","282","205525","0.0-3.0-1.139","true"
"484","ImagesDirect/VR92.5.png","190","test",",","image-keyboard-response","284","206515","0.0-3.0-1.140","false"
"438","ImagesDirect/VR100.png","190","test",".","image-keyboard-response","286","207460","0.0-3.0-1.141","true"
"677","ImagesTennis/TL90.png","190","test",".","image-keyboard-response","288","208640","0.0-3.0-1.142","true"
"363","ImagesTennis/TR102.5.png","190","test",".","image-keyboard-response","290","209505","0.0-3.0-1.143","true"
"546","ImagesDirect/VR97.5.png","190","test",",","image-keyboard-response","292","210557","0.0-3.0-1.144","false"
"529","ImagesDirect/VL90.png","188","test",".","image-keyboard-response","294","211587","0.0-3.0-1.145","false"
"541","ImagesSoccer/VR105.png","190","test",".","image-keyboard-response","296","212634","0.0-3.0-1.146","true"
"481","ImagesDirect/VL110.png","188","test",",","image-keyboard-response","298","213622","0.0-3.0-1.147","true"
"519","ImagesDirect/VR107.5.png","190","test",".","image-keyboard-response","300","214643","0.0-3.0-1.148","true"
"495","ImagesSoccer/VR90.png","190","test",",","image-keyboard-response","302","215640","0.0-3.0-1.149","false"
"385","ImagesDirect/VL102.5.png","188","test",",","image-keyboard-response","304","216530","0.0-3.0-1.150","true"
"551","ImagesTennis/TL97.5.png","190","test",".","image-keyboard-response","306","217583","0.0-3.0-1.151","true"
"405","ImagesSoccer/VR97.5.png","190","test",",","image-keyboard-response","308","218491","0.0-3.0-1.152","false"
"319","ImagesDirect/VL95.png","190","test",".","image-keyboard-response","310","219313","0.0-3.0-1.153","true"
"454","ImagesSoccer/VR95.png","190","test",",","image-keyboard-response","312","220273","0.0-3.0-1.154","false"
"846","ImagesTennis/TR107.5.png","190","test",".","image-keyboard-response","314","221625","0.0-3.0-1.155","true"
"416","ImagesSoccer/VR107.5.png","190","test",".","image-keyboard-response","316","222543","0.0-3.0-1.156","true"
"416","ImagesDirect/VL92.5.png","188","test",".","image-keyboard-response","318","223465","0.0-3.0-1.157","false"
"474","ImagesTennis/TR100.png","190","test",".","image-keyboard-response","320","224445","0.0-3.0-1.158","true"
"558","ImagesTennis/TR95.png","190","test",",","image-keyboard-response","322","225507","0.0-3.0-1.159","false"
"1020","ImagesTennis/TR92.5.png","190","test",",","image-keyboard-response","324","227032","0.0-3.0-1.160","false"
"698","ImagesTennis/TR90.png","190","test",",","image-keyboard-response","326","228233","0.0-3.0-1.161","false"
"713","ImagesSoccer/VL90.png","188","test",".","image-keyboard-response","328","229451","0.0-3.0-1.162","false"
"1300","ImagesTennis/TL102.5.png","188","test",",","image-keyboard-response","330","231252","0.0-3.0-1.163","true"
"473","ImagesTennis/TL107.5.png","188","test",",","image-keyboard-response","332","232227","0.0-3.0-1.164","true"
"619","ImagesTennis/TR97.5.png","190","test",",","image-keyboard-response","334","233348","0.0-3.0-1.165","false"
"528","ImagesSoccer/VL97.5.png","188","test",".","image-keyboard-response","336","234378","0.0-3.0-1.166","false"
"807","ImagesTennis/TL92.5.png","188","test",".","image-keyboard-response","338","235689","0.0-3.0-1.167","false"
"556","ImagesDirect/VR110.png","190","test",".","image-keyboard-response","340","236751","0.0-3.0-1.168","true"
"2788","ImagesTennis/TR100.png","190","test",".","image-keyboard-response","342","240041","0.0-3.0-1.169","true"
"922","ImagesDirect/VR90.png","190","test",",","image-keyboard-response","344","241465","0.0-3.0-1.170","false"
"658","ImagesTennis/TR105.png","190","test",".","image-keyboard-response","346","242626","0.0-3.0-1.171","true"
"1242","ImagesDirect/VL107.5.png","188","test",",","image-keyboard-response","348","244372","0.0-3.0-1.172","true"
"1458","ImagesTennis/TR102.5.png","190","test",".","image-keyboard-response","350","246333","0.0-3.0-1.173","true"
"1313","ImagesSoccer/VR100.png","190","test",".","image-keyboard-response","352","248149","0.0-3.0-1.174","true"
"968","ImagesSoccer/VR92.5.png","190","test",",","image-keyboard-response","354","249622","0.0-3.0-1.175","false"
"530","ImagesDirect/VR97.5.png","190","test",",","image-keyboard-response","356","250654","0.0-3.0-1.176","false"
"790","ImagesTennis/TR95.png","188","test",",","image-keyboard-response","358","251951","0.0-3.0-1.177","true"
"1657","ImagesDirect/VL95.png","188","test",".","image-keyboard-response","360","254112","0.0-3.0-1.178","false"
"865","ImagesTennis/TL90.png","190","test",".","image-keyboard-response","362","255483","0.0-3.0-1.179","true"
"878","ImagesDirect/VL102.5.png","190","test",",","image-keyboard-response","364","256867","0.0-3.0-1.180","false"
"1496","ImagesTennis/TL105.png","190","test",",","image-keyboard-response","366","258866","0.0-3.0-1.181","false"
"479","ImagesDirect/VR100.png","190","test",".","image-keyboard-response","368","259850","0.0-3.0-1.182","true"
"730","ImagesDirect/VL92.5.png","188","test",".","image-keyboard-response","370","261081","0.0-3.0-1.183","false"
"822","ImagesTennis/TL95.png","188","test",".","image-keyboard-response","372","262407","0.0-3.0-1.184","false"
"499","ImagesSoccer/VL100.png","188","test",".","image-keyboard-response","374","263411","0.0-3.0-1.185","false"
"516","ImagesSoccer/VR97.5.png","190","test",",","image-keyboard-response","376","264432","0.0-3.0-1.186","false"
"565","ImagesDirect/VR102.5.png","190","test",".","image-keyboard-response","378","265503","0.0-3.0-1.187","true"
"408","ImagesSoccer/VR107.5.png","190","test",".","image-keyboard-response","380","266415","0.0-3.0-1.188","true"
"944","ImagesTennis/TL100.png","190","test",".","image-keyboard-response","382","267863","0.0-3.0-1.189","true"
"694","ImagesSoccer/VL92.5.png","188","test",".","image-keyboard-response","384","269059","0.0-3.0-1.190","false"
"1140","ImagesDirect/VL110.png","188","test",",","image-keyboard-response","386","270702","0.0-3.0-1.191","true"
"4842","ImagesSoccer/VL102.5.png","188","test",",","image-keyboard-response","388","276047","0.0-3.0-1.192","true"
"584","ImagesTennis/TL97.5.png","190","test",".","image-keyboard-response","390","277138","0.0-3.0-1.193","true"
"590","ImagesSoccer/VR90.png","190","test",",","image-keyboard-response","392","278232","0.0-3.0-1.194","false"
"1147","ImagesTennis/TL110.png","188","test",",","image-keyboard-response","394","279884","0.0-3.0-1.195","true"
"709","ImagesDirect/VR92.5.png","190","test",",","image-keyboard-response","396","281097","0.0-3.0-1.196","false"
"466","ImagesSoccer/VR105.png","190","test",".","image-keyboard-response","398","282065","0.0-3.0-1.197","true"
"566","ImagesSoccer/VL107.5.png","188","test",",","image-keyboard-response","400","283134","0.0-3.0-1.198","true"
"448","ImagesTennis/TR110.png","190","test",".","image-keyboard-response","402","284083","0.0-3.0-1.199","true"
"386","ImagesTennis/TR92.5.png","190","test",",","image-keyboard-response","404","284974","0.0-3.0-1.200","false"
"590","ImagesDirect/VL105.png","188","test",",","image-keyboard-response","406","286065","0.0-3.0-1.201","true"
"549","ImagesDirect/VR107.5.png","190","test",".","image-keyboard-response","408","287116","0.0-3.0-1.202","true"
"491","ImagesSoccer/VR95.png","190","test",",","image-keyboard-response","410","288113","0.0-3.0-1.203","false"
"502","ImagesDirect/VR95.png","190","test",",","image-keyboard-response","412","289119","0.0-3.0-1.204","false"
"632","ImagesSoccer/VL105.png","188","test",",","image-keyboard-response","414","290256","0.0-3.0-1.205","true"
"892","ImagesDirect/VL97.5.png","188","test",".","image-keyboard-response","416","291652","0.0-3.0-1.206","false"
"958","ImagesDirect/VL90.png","190","test",".","image-keyboard-response","418","293112","0.0-3.0-1.207","true"
"618","ImagesDirect/VL100.png","190","test",".","image-keyboard-response","420","294236","0.0-3.0-1.208","true"
"656","ImagesSoccer/VL95.png","190","test",".","image-keyboard-response","422","295394","0.0-3.0-1.209","true"
"541","ImagesSoccer/VR110.png","190","test",".","image-keyboard-response","424","296441","0.0-3.0-1.210","true"
"694","ImagesTennis/TR90.png","188","test",",","image-keyboard-response","426","297637","0.0-3.0-1.211","true"
"532","ImagesTennis/TR107.5.png","188","test",".","image-keyboard-response","428","298676","0.0-3.0-1.212","false"
"712","ImagesSoccer/VR102.5.png","190","test",".","image-keyboard-response","430","299889","0.0-3.0-1.213","true"
"719","ImagesSoccer/VL110.png","188","test",",","image-keyboard-response","432","301110","0.0-3.0-1.214","true"
"978","ImagesDirect/VR105.png","190","test",".","image-keyboard-response","434","302590","0.0-3.0-1.215","true"
"406","ImagesDirect/VR92.5.png","190","test",",","image-keyboard-response","436","303500","0.0-3.0-1.216","false"
"395","ImagesSoccer/VR102.5.png","190","test",".","image-keyboard-response","438","304398","0.0-3.0-1.217","true"
"540","ImagesSoccer/VL92.5.png","188","test",".","image-keyboard-response","440","305444","0.0-3.0-1.218","false"
"688","ImagesDirect/VR105.png","190","test",".","image-keyboard-response","442","306638","0.0-3.0-1.219","true"
"351","ImagesDirect/VR95.png","190","test",",","image-keyboard-response","444","307495","0.0-3.0-1.220","false"
"354","ImagesSoccer/VR92.5.png","190","test",",","image-keyboard-response","446","308353","0.0-3.0-1.221","false"
"654","ImagesDirect/VL95.png","188","test",".","image-keyboard-response","448","309513","0.0-3.0-1.222","false"
"546","ImagesSoccer/VL100.png","188","test",".","image-keyboard-response","450","310560","0.0-3.0-1.223","false"
"816","ImagesTennis/TR100.png","190","test",".","image-keyboard-response","452","311879","0.0-3.0-1.224","true"
"440","ImagesTennis/TR97.5.png","190","test",",","image-keyboard-response","454","312822","0.0-3.0-1.225","false"
"710","ImagesDirect/VL102.5.png","188","test",",","image-keyboard-response","456","314036","0.0-3.0-1.226","true"
"922","ImagesTennis/TR90.png","190","test",",","image-keyboard-response","458","315461","0.0-3.0-1.227","false"
"593","ImagesTennis/TL90.png","188","test",".","image-keyboard-response","460","316557","0.0-3.0-1.228","false"
"520","ImagesSoccer/VL97.5.png","188","test",".","image-keyboard-response","462","317583","0.0-3.0-1.229","false"
"402","ImagesSoccer/VL105.png","188","test",",","image-keyboard-response","464","318487","0.0-3.0-1.230","true"
"480","ImagesDirect/VR107.5.png","190","test",".","image-keyboard-response","466","319473","0.0-3.0-1.231","true"
"426","ImagesSoccer/VR90.png","190","test",",","image-keyboard-response","468","320405","0.0-3.0-1.232","false"
"516","ImagesSoccer/VR95.png","190","test",",","image-keyboard-response","470","321427","0.0-3.0-1.233","false"
"772","ImagesSoccer/VR100.png","190","test",".","image-keyboard-response","472","322705","0.0-3.0-1.234","true"
"536","ImagesTennis/TL110.png","188","test",",","image-keyboard-response","474","323747","0.0-3.0-1.235","true"
"460","ImagesSoccer/VR110.png","190","test",".","image-keyboard-response","476","324713","0.0-3.0-1.236","true"
"537","ImagesDirect/VR100.png","190","test",".","image-keyboard-response","478","325752","0.0-3.0-1.237","true"
"401","ImagesSoccer/VR105.png","190","test",".","image-keyboard-response","480","326655","0.0-3.0-1.238","true"
"504","ImagesTennis/TR102.5.png","190","test",".","image-keyboard-response","482","327663","0.0-3.0-1.239","true"
"1809","ImagesDirect/VL92.5.png","190","test",".","image-keyboard-response","484","329976","0.0-3.0-1.240","true"
"726","ImagesSoccer/VL110.png","188","test",",","image-keyboard-response","486","331204","0.0-3.0-1.241","true"
"545","ImagesDirect/VL110.png","188","test",",","image-keyboard-response","488","332250","0.0-3.0-1.242","true"
"458","ImagesDirect/VL97.5.png","188","test",".","image-keyboard-response","490","333210","0.0-3.0-1.243","false"
"1570","ImagesTennis/TR92.5.png","190","test",",","image-keyboard-response","492","335282","0.0-3.0-1.244","false"
"523","ImagesDirect/VR102.5.png","190","test",".","image-keyboard-response","494","336311","0.0-3.0-1.245","true"
"786","ImagesSoccer/VL90.png","188","test",".","image-keyboard-response","496","337600","0.0-3.0-1.246","false"
"812","ImagesTennis/TL105.png","188","test",",","image-keyboard-response","498","338916","0.0-3.0-1.247","true"
"531","ImagesDirect/VR110.png","190","test",".","image-keyboard-response","500","339951","0.0-3.0-1.248","true"
"696","ImagesTennis/TR107.5.png","190","test",".","image-keyboard-response","502","341149","0.0-3.0-1.249","true"
"497","ImagesTennis/TR110.png","190","test",".","image-keyboard-response","504","342152","0.0-3.0-1.250","true"
"576","ImagesDirect/VR97.5.png","190","test",",","image-keyboard-response","506","343235","0.0-3.0-1.251","false"
"768","ImagesTennis/TL107.5.png","188","test",",","image-keyboard-response","508","344509","0.0-3.0-1.252","true"
"2050","ImagesSoccer/VL102.5.png","188","test",",","image-keyboard-response","510","347061","0.0-3.0-1.253","true"
"525","ImagesTennis/TR105.png","190","test",".","image-keyboard-response","512","348091","0.0-3.0-1.254","true"
"483","ImagesTennis/TL92.5.png","188","test",".","image-keyboard-response","514","349077","0.0-3.0-1.255","false"
"459","ImagesSoccer/VR97.5.png","190","test",",","image-keyboard-response","516","350039","0.0-3.0-1.256","false"
"739","ImagesDirect/VL107.5.png","188","test",",","image-keyboard-response","518","351283","0.0-3.0-1.257","true"
"513","ImagesDirect/VL100.png","188","test",".","image-keyboard-response","520","352300","0.0-3.0-1.258","false"
"342","ImagesDirect/VL90.png","188","test",".","image-keyboard-response","522","353145","0.0-3.0-1.259","false"
"626","ImagesTennis/TL97.5.png","188","test",".","image-keyboard-response","524","354275","0.0-3.0-1.260","false"
"459","ImagesSoccer/VL95.png","188","test",".","image-keyboard-response","526","355235","0.0-3.0-1.261","false"
"359","ImagesSoccer/VL107.5.png","188","test",",","image-keyboard-response","528","356100","0.0-3.0-1.262","true"
"562","ImagesDirect/VR90.png","190","test",",","image-keyboard-response","530","357168","0.0-3.0-1.263","false"
"558","ImagesTennis/TL102.5.png","190","test",",","image-keyboard-response","532","358229","0.0-3.0-1.264","false"
"432","ImagesSoccer/VR107.5.png","190","test",".","image-keyboard-response","534","359164","0.0-3.0-1.265","true"
"561","ImagesTennis/TL100.png","188","test",".","image-keyboard-response","536","360230","0.0-3.0-1.266","false"
"598","ImagesTennis/TL95.png","190","test",".","image-keyboard-response","538","361332","0.0-3.0-1.267","true"
"631","ImagesDirect/VL105.png","188","test",",","image-keyboard-response","540","362464","0.0-3.0-1.268","true"
"850","ImagesTennis/TR95.png","188","test",",","image-keyboard-response","542","363820","0.0-3.0-1.269","true"
"3059","ImagesCoins/10R100.png","190","test",".","image-keyboard-response","544","367380","0.0-4.0-1.0","true"
"1979","ImagesCoins/10L92.5.png","190","test",".","image-keyboard-response","546","369867","0.0-4.0-1.1","true"
"1173","ImagesCoins/10L107.5.png","188","test",",","image-keyboard-response","548","371541","0.0-4.0-1.2","true"
"741","ImagesCoins/10L90.png","190","test",".","image-keyboard-response","550","372788","0.0-4.0-1.3","true"
"726","ImagesCoins/10R95.png","190","test",",","image-keyboard-response","552","374019","0.0-4.0-1.4","false"
"589","ImagesCoins/10R102.5.png","190","test",".","image-keyboard-response","554","375112","0.0-4.0-1.5","true"
"950","ImagesCoins/10L97.5.png","188","test",".","image-keyboard-response","556","376564","0.0-4.0-1.6","false"
"629","ImagesCoins/10R105.png","190","test",".","image-keyboard-response","558","377700","0.0-4.0-1.7","true"
"487","ImagesCoins/10R110.png","190","test",".","image-keyboard-response","560","378693","0.0-4.0-1.8","true"
"768","ImagesCoins/10L100.png","188","test",".","image-keyboard-response","562","379966","0.0-4.0-1.9","false"
"903","ImagesCoins/10L110.png","188","test",",","image-keyboard-response","564","381372","0.0-4.0-1.10","true"
"548","ImagesCoins/10L105.png","188","test",",","image-keyboard-response","566","382425","0.0-4.0-1.11","true"
"3596","ImagesCoins/10R92.5.png","188","test",",","image-keyboard-response","568","386527","0.0-4.0-1.12","true"
"707","ImagesCoins/10R107.5.png","190","test",".","image-keyboard-response","570","387740","0.0-4.0-1.13","true"
"2358","ImagesCoins/10R97.5.png","188","test",",","image-keyboard-response","572","390600","0.0-4.0-1.14","true"
"942","ImagesCoins/10L102.5.png","188","test",",","image-keyboard-response","574","392049","0.0-4.0-1.15","true"
"1201","ImagesCoins/10R90.png","190","test",",","image-keyboard-response","576","393753","0.0-4.0-1.16","false"
"2431","ImagesCoins/10L95.png","190","test",".","image-keyboard-response","578","396688","0.0-4.0-1.17","true"
"697","ImagesCoins/10R105.png","190","test",".","image-keyboard-response","580","397887","0.0-4.0-1.18","true"
"695","ImagesCoins/10L107.5.png","188","test",",","image-keyboard-response","582","399083","0.0-4.0-1.19","true"
"1482","ImagesCoins/10R97.5.png","190","test",",","image-keyboard-response","584","401069","0.0-4.0-1.20","false"
"711","ImagesCoins/10R107.5.png","190","test",".","image-keyboard-response","586","402285","0.0-4.0-1.21","true"
"947","ImagesCoins/10L92.5.png","190","test",".","image-keyboard-response","588","403738","0.0-4.0-1.22","true"
"636","ImagesCoins/10R110.png","190","test",".","image-keyboard-response","590","404877","0.0-4.0-1.23","true"
"1469","ImagesCoins/10R92.5.png","190","test",",","image-keyboard-response","592","406847","0.0-4.0-1.24","false"
"609","ImagesCoins/10R100.png","190","test",".","image-keyboard-response","594","407961","0.0-4.0-1.25","true"
"952","ImagesCoins/10R90.png","190","test",",","image-keyboard-response","596","409417","0.0-4.0-1.26","false"
"1470","ImagesCoins/10L100.png","190","test",".","image-keyboard-response","598","411389","0.0-4.0-1.27","true"
"973","ImagesCoins/10L102.5.png","190","test",",","image-keyboard-response","600","412866","0.0-4.0-1.28","false"
"672","ImagesCoins/10L110.png","188","test",",","image-keyboard-response","602","414044","0.0-4.0-1.29","true"
"661","ImagesCoins/10R102.5.png","190","test",".","image-keyboard-response","604","415208","0.0-4.0-1.30","true"
"822","ImagesCoins/10L97.5.png","188","test",".","image-keyboard-response","606","416532","0.0-4.0-1.31","false"
"703","ImagesCoins/10L95.png","188","test",".","image-keyboard-response","608","417738","0.0-4.0-1.32","false"
"559","ImagesCoins/10L90.png","188","test",".","image-keyboard-response","610","418800","0.0-4.0-1.33","false"
"552","ImagesCoins/10L105.png","188","test",",","image-keyboard-response","612","419853","0.0-4.0-1.34","true"
"532","ImagesCoins/10R95.png","190","test",",","image-keyboard-response","614","420888","0.0-4.0-1.35","false"
"643","ImagesCoins/10R105.png","190","test",".","image-keyboard-response","616","422033","0.0-4.0-1.36","true"
"536","ImagesCoins/10R100.png","190","test",".","image-keyboard-response","618","423074","0.0-4.0-1.37","true"
"804","ImagesCoins/10L102.5.png","188","test",",","image-keyboard-response","620","424381","0.0-4.0-1.38","true"
"608","ImagesCoins/10L90.png","188","test",".","image-keyboard-response","622","425495","0.0-4.0-1.39","false"
"588","ImagesCoins/10R90.png","190","test",",","image-keyboard-response","624","426589","0.0-4.0-1.40","false"
"945","ImagesCoins/10L105.png","188","test",",","image-keyboard-response","626","428041","0.0-4.0-1.41","true"
"582","ImagesCoins/10R110.png","190","test",".","image-keyboard-response","628","429124","0.0-4.0-1.42","true"
"739","ImagesCoins/10L97.5.png","188","test",".","image-keyboard-response","630","430369","0.0-4.0-1.43","false"
"704","ImagesCoins/10R107.5.png","190","test",".","image-keyboard-response","632","431579","0.0-4.0-1.44","true"
"669","ImagesCoins/10L100.png","188","test",".","image-keyboard-response","634","432750","0.0-4.0-1.45","false"
"1988","ImagesCoins/10L95.png","190","test",".","image-keyboard-response","636","435239","0.0-4.0-1.46","true"
"584","ImagesCoins/10R102.5.png","190","test",".","image-keyboard-response","638","436327","0.0-4.0-1.47","true"
"705","ImagesCoins/10L110.png","188","test",",","image-keyboard-response","640","437534","0.0-4.0-1.48","true"
"749","ImagesCoins/10R97.5.png","190","test",",","image-keyboard-response","642","438789","0.0-4.0-1.49","false"
"828","ImagesCoins/10L107.5.png","188","test",",","image-keyboard-response","644","440121","0.0-4.0-1.50","true"
"2276","ImagesCoins/10R95.png","188","test",",","image-keyboard-response","646","442903","0.0-4.0-1.51","true"
"625","ImagesCoins/10L92.5.png","190","test",".","image-keyboard-response","648","444030","0.0-4.0-1.52","true"
"1384","ImagesCoins/10R92.5.png","188","test",",","image-keyboard-response","650","445918","0.0-4.0-1.53","true"
"601","ImagesCoins/10L90.png","190","test",".","image-keyboard-response","652","447020","0.0-4.0-1.54","true"
"656","ImagesCoins/10L107.5.png","188","test",",","image-keyboard-response","654","448177","0.0-4.0-1.55","true"
"695","ImagesCoins/10R97.5.png","190","test",",","image-keyboard-response","656","449378","0.0-4.0-1.56","false"
"907","ImagesCoins/10R100.png","190","test",".","image-keyboard-response","658","450788","0.0-4.0-1.57","true"
"919","ImagesCoins/10R95.png","190","test",",","image-keyboard-response","660","452213","0.0-4.0-1.58","false"
"555","ImagesCoins/10R110.png","190","test",".","image-keyboard-response","662","453269","0.0-4.0-1.59","true"
"512","ImagesCoins/10R107.5.png","190","test",".","image-keyboard-response","664","454287","0.0-4.0-1.60","true"
"755","ImagesCoins/10R90.png","190","test",",","image-keyboard-response","666","455543","0.0-4.0-1.61","false"
"815","ImagesCoins/10L100.png","188","test",".","image-keyboard-response","668","456864","0.0-4.0-1.62","false"
"692","ImagesCoins/10L95.png","188","test",".","image-keyboard-response","670","458060","0.0-4.0-1.63","false"
"684","ImagesCoins/10L92.5.png","190","test",".","image-keyboard-response","672","459246","0.0-4.0-1.64","true"
"632","ImagesCoins/10R105.png","190","test",".","image-keyboard-response","674","460379","0.0-4.0-1.65","true"
"476","ImagesCoins/10R102.5.png","190","test",".","image-keyboard-response","676","461358","0.0-4.0-1.66","true"
"787","ImagesCoins/10L105.png","188","test",",","image-keyboard-response","678","462651","0.0-4.0-1.67","true"
"576","ImagesCoins/10R92.5.png","190","test",",","image-keyboard-response","680","463733","0.0-4.0-1.68","false"
"915","ImagesCoins/10L102.5.png","188","test",",","image-keyboard-response","682","465150","0.0-4.0-1.69","true"
"666","ImagesCoins/10L97.5.png","188","test",".","image-keyboard-response","684","466322","0.0-4.0-1.70","false"
"488","ImagesCoins/10L110.png","188","test",",","image-keyboard-response","686","467316","0.0-4.0-1.71","true"
"591","ImagesCoins/10R90.png","190","test",",","image-keyboard-response","688","468414","0.0-4.0-1.72","false"
"483","ImagesCoins/10L100.png","188","test",".","image-keyboard-response","690","469401","0.0-4.0-1.73","false"
"585","ImagesCoins/10R105.png","190","test",".","image-keyboard-response","692","470488","0.0-4.0-1.74","true"
"476","ImagesCoins/10R100.png","190","test",".","image-keyboard-response","694","471470","0.0-4.0-1.75","true"
"820","ImagesCoins/10L95.png","190","test",".","image-keyboard-response","696","472796","0.0-4.0-1.76","true"
"797","ImagesCoins/10R97.5.png","190","test",",","image-keyboard-response","698","474094","0.0-4.0-1.77","false"
"801","ImagesCoins/10L102.5.png","188","test",",","image-keyboard-response","700","475401","0.0-4.0-1.78","true"
"373","ImagesCoins/10R102.5.png","190","test",".","image-keyboard-response","702","476280","0.0-4.0-1.79","true"
"851","ImagesCoins/10L90.png","190","test",".","image-keyboard-response","704","477632","0.0-4.0-1.80","true"
"551","ImagesCoins/10L105.png","188","test",",","image-keyboard-response","706","478686","0.0-4.0-1.81","true"
"639","ImagesCoins/10L92.5.png","188","test",".","image-keyboard-response","708","479831","0.0-4.0-1.82","false"
"543","ImagesCoins/10R107.5.png","190","test",".","image-keyboard-response","710","480877","0.0-4.0-1.83","true"
"611","ImagesCoins/10L110.png","188","test",",","image-keyboard-response","712","481989","0.0-4.0-1.84","true"
"2016","ImagesCoins/10L97.5.png","190","test",".","image-keyboard-response","714","484507","0.0-4.0-1.85","true"
"556","ImagesCoins/10R110.png","190","test",".","image-keyboard-response","716","485566","0.0-4.0-1.86","true"
"719","ImagesCoins/10R95.png","188","test",",","image-keyboard-response","718","486791","0.0-4.0-1.87","true"
"585","ImagesCoins/10L107.5.png","188","test",",","image-keyboard-response","720","487882","0.0-4.0-1.88","true"
"731","ImagesCoins/10R92.5.png","190","test",",","image-keyboard-response","722","489117","0.0-4.0-1.89","false"
