"rt","stimulus","key_press","test_part","correct_response","trial_type","trial_index","time_elapsed","internal_node_id","correct"
"1887","ImagesCoins/10L110.png","188","test",",","image-keyboard-response","4","37502","0.0-3.0-1.0","true"
"1225","ImagesCoins/10R107.5.png","190","test",".","image-keyboard-response","6","39230","0.0-3.0-1.1","true"
"1033","ImagesCoins/10L97.5.png","190","test",".","image-keyboard-response","8","40766","0.0-3.0-1.2","true"
"2329","ImagesCoins/10R90.png","188","test",",","image-keyboard-response","10","43599","0.0-3.0-1.3","true"
"906","ImagesCoins/10L102.5.png","190","test",",","image-keyboard-response","12","45006","0.0-3.0-1.4","false"
"1433","ImagesCoins/10L105.png","188","test",",","image-keyboard-response","14","46942","0.0-3.0-1.5","true"
"907","ImagesCoins/10R100.png","190","test",".","image-keyboard-response","16","48350","0.0-3.0-1.6","true"
"1514","ImagesCoins/10L100.png","190","test",".","image-keyboard-response","18","50366","0.0-3.0-1.7","true"
"1962","ImagesCoins/10R95.png","188","test",",","image-keyboard-response","20","52830","0.0-3.0-1.8","true"
"818","ImagesCoins/10R102.5.png","190","test",".","image-keyboard-response","22","54150","0.0-3.0-1.9","true"
"898","ImagesCoins/10R110.png","190","test",".","image-keyboard-response","24","55550","0.0-3.0-1.10","true"
"1009","ImagesCoins/10L90.png","190","test",".","image-keyboard-response","26","57062","0.0-3.0-1.11","true"
"1154","ImagesCoins/10L95.png","190","test",".","image-keyboard-response","28","58718","0.0-3.0-1.12","true"
"922","ImagesCoins/10R105.png","190","test",".","image-keyboard-response","30","60142","0.0-3.0-1.13","true"
"1833","ImagesCoins/10R97.5.png","190","test",",","image-keyboard-response","32","62478","0.0-3.0-1.14","false"
"835","ImagesCoins/10L107.5.png","188","test",",","image-keyboard-response","34","63814","0.0-3.0-1.15","true"
"1331","ImagesCoins/10R92.5.png","188","test",",","image-keyboard-response","36","65646","0.0-3.0-1.16","true"
"795","ImagesCoins/10L92.5.png","190","test",".","image-keyboard-response","38","66942","0.0-3.0-1.17","true"
"1531","ImagesCoins/10R92.5.png","188","test",",","image-keyboard-response","40","68974","0.0-3.0-1.18","true"
"978","ImagesCoins/10R100.png","190","test",".","image-keyboard-response","42","70454","0.0-3.0-1.19","true"
"801","ImagesCoins/10L107.5.png","188","test",",","image-keyboard-response","44","71758","0.0-3.0-1.20","true"
"802","ImagesCoins/10L90.png","190","test",".","image-keyboard-response","46","73062","0.0-3.0-1.21","true"
"1355","ImagesCoins/10R97.5.png","188","test",",","image-keyboard-response","48","74918","0.0-3.0-1.22","true"
"1187","ImagesCoins/10R90.png","188","test",",","image-keyboard-response","50","76606","0.0-3.0-1.23","true"
"1098","ImagesCoins/10L105.png","188","test",",","image-keyboard-response","52","78206","0.0-3.0-1.24","true"
"1027","ImagesCoins/10L100.png","190","test",".","image-keyboard-response","54","79734","0.0-3.0-1.25","true"
"803","ImagesCoins/10R110.png","190","test",".","image-keyboard-response","56","81038","0.0-3.0-1.26","true"
"1290","ImagesCoins/10L97.5.png","190","test",".","image-keyboard-response","58","82830","0.0-3.0-1.27","true"
"858","ImagesCoins/10L92.5.png","190","test",".","image-keyboard-response","60","84190","0.0-3.0-1.28","true"
"2217","ImagesCoins/10R95.png","188","test",",","image-keyboard-response","62","86910","0.0-3.0-1.29","true"
"1178","ImagesCoins/10L102.5.png","190","test",",","image-keyboard-response","64","88590","0.0-3.0-1.30","false"
"905","ImagesCoins/10R107.5.png","190","test",".","image-keyboard-response","66","89998","0.0-3.0-1.31","true"
"987","ImagesCoins/10R102.5.png","190","test",".","image-keyboard-response","68","91486","0.0-3.0-1.32","true"
"1328","ImagesCoins/10L110.png","188","test",",","image-keyboard-response","70","93318","0.0-3.0-1.33","true"
"706","ImagesCoins/10R105.png","190","test",".","image-keyboard-response","72","94526","0.0-3.0-1.34","true"
"1098","ImagesCoins/10L95.png","190","test",".","image-keyboard-response","74","96126","0.0-3.0-1.35","true"
"4530","ImagesCoins/10R107.5.png","190","test",".","image-keyboard-response","76","101159","0.0-3.0-1.36","true"
"1264","ImagesCoins/10L110.png","188","test",",","image-keyboard-response","78","102927","0.0-3.0-1.37","true"
"858","ImagesCoins/10L107.5.png","188","test",",","image-keyboard-response","80","104286","0.0-3.0-1.38","true"
"954","ImagesCoins/10R90.png","188","test",",","image-keyboard-response","82","105743","0.0-3.0-1.39","true"
"1017","ImagesCoins/10L102.5.png","190","test",",","image-keyboard-response","84","107262","0.0-3.0-1.40","false"
"1089","ImagesCoins/10L105.png","188","test",",","image-keyboard-response","86","108854","0.0-3.0-1.41","true"
"914","ImagesCoins/10L97.5.png","190","test",".","image-keyboard-response","88","110270","0.0-3.0-1.42","true"
"1002","ImagesCoins/10R102.5.png","190","test",".","image-keyboard-response","90","111775","0.0-3.0-1.43","true"
"890","ImagesCoins/10L90.png","190","test",".","image-keyboard-response","92","113166","0.0-3.0-1.44","true"
"809","ImagesCoins/10R110.png","190","test",".","image-keyboard-response","94","114478","0.0-3.0-1.45","true"
"1098","ImagesCoins/10R97.5.png","188","test",",","image-keyboard-response","96","116078","0.0-3.0-1.46","true"
"986","ImagesCoins/10L95.png","190","test",".","image-keyboard-response","98","117567","0.0-3.0-1.47","true"
"1865","ImagesCoins/10R100.png","190","test",".","image-keyboard-response","100","119934","0.0-3.0-1.48","true"
"1099","ImagesCoins/10R92.5.png","188","test",",","image-keyboard-response","102","121534","0.0-3.0-1.49","true"
"1042","ImagesCoins/10R105.png","190","test",".","image-keyboard-response","104","123079","0.0-3.0-1.50","true"
"1274","ImagesCoins/10L100.png","190","test",".","image-keyboard-response","106","124855","0.0-3.0-1.51","true"
"1058","ImagesCoins/10L92.5.png","190","test",".","image-keyboard-response","108","126414","0.0-3.0-1.52","true"
"1169","ImagesCoins/10R95.png","188","test",",","image-keyboard-response","110","128086","0.0-3.0-1.53","true"
"1138","ImagesCoins/10R95.png","188","test",",","image-keyboard-response","112","129727","0.0-3.0-1.54","true"
"866","ImagesCoins/10R105.png","190","test",".","image-keyboard-response","114","131094","0.0-3.0-1.55","true"
"1186","ImagesCoins/10L110.png","188","test",",","image-keyboard-response","116","132783","0.0-3.0-1.56","true"
"1010","ImagesCoins/10L97.5.png","190","test",".","image-keyboard-response","118","134295","0.0-3.0-1.57","true"
"1161","ImagesCoins/10R90.png","188","test",",","image-keyboard-response","120","135958","0.0-3.0-1.58","true"
"1186","ImagesCoins/10R100.png","190","test",".","image-keyboard-response","122","137646","0.0-3.0-1.59","true"
"810","ImagesCoins/10R107.5.png","190","test",".","image-keyboard-response","124","138959","0.0-3.0-1.60","true"
"794","ImagesCoins/10R110.png","190","test",".","image-keyboard-response","126","140254","0.0-3.0-1.61","true"
"1578","ImagesCoins/10L100.png","190","test",".","image-keyboard-response","128","142334","0.0-3.0-1.62","true"
"2380","ImagesCoins/10R97.5.png","190","test",",","image-keyboard-response","130","145215","0.0-3.0-1.63","false"
"1753","ImagesCoins/10L105.png","188","test",",","image-keyboard-response","132","147470","0.0-3.0-1.64","true"
"842","ImagesCoins/10L90.png","190","test",".","image-keyboard-response","134","148814","0.0-3.0-1.65","true"
"947","ImagesCoins/10L107.5.png","188","test",",","image-keyboard-response","136","150262","0.0-3.0-1.66","true"
"1523","ImagesCoins/10R92.5.png","188","test",",","image-keyboard-response","138","152286","0.0-3.0-1.67","true"
"841","ImagesCoins/10L92.5.png","190","test",".","image-keyboard-response","140","153630","0.0-3.0-1.68","true"
"1442","ImagesCoins/10R102.5.png","190","test",".","image-keyboard-response","142","155574","0.0-3.0-1.69","true"
"1547","ImagesCoins/10L95.png","190","test",".","image-keyboard-response","144","157623","0.0-3.0-1.70","true"
"1167","ImagesCoins/10L102.5.png","190","test",",","image-keyboard-response","146","159295","0.0-3.0-1.71","false"
"1080","ImagesCoins/10L102.5.png","188","test",",","image-keyboard-response","148","160879","0.0-3.0-1.72","true"
"682","ImagesCoins/10L90.png","190","test",".","image-keyboard-response","150","162063","0.0-3.0-1.73","true"
"929","ImagesCoins/10R110.png","190","test",".","image-keyboard-response","152","163495","0.0-3.0-1.74","true"
"1120","ImagesCoins/10R95.png","188","test",",","image-keyboard-response","154","165119","0.0-3.0-1.75","true"
"936","ImagesCoins/10R90.png","188","test",",","image-keyboard-response","156","166559","0.0-3.0-1.76","true"
"1927","ImagesCoins/10L105.png","188","test",",","image-keyboard-response","158","168990","0.0-3.0-1.77","true"
"917","ImagesCoins/10L97.5.png","190","test",".","image-keyboard-response","160","170407","0.0-3.0-1.78","true"
"2968","ImagesCoins/10L100.png","188","test",".","image-keyboard-response","162","173878","0.0-3.0-1.79","false"
"978","ImagesCoins/10R102.5.png","190","test",".","image-keyboard-response","164","175359","0.0-3.0-1.80","true"
"1016","ImagesCoins/10R92.5.png","188","test",",","image-keyboard-response","166","176879","0.0-3.0-1.81","true"
"2231","ImagesCoins/10L107.5.png","188","test",",","image-keyboard-response","168","179615","0.0-3.0-1.82","true"
"776","ImagesCoins/10L95.png","190","test",".","image-keyboard-response","170","180895","0.0-3.0-1.83","true"
"712","ImagesCoins/10R107.5.png","190","test",".","image-keyboard-response","172","182110","0.0-3.0-1.84","true"
"874","ImagesCoins/10L92.5.png","190","test",".","image-keyboard-response","174","183487","0.0-3.0-1.85","true"
"919","ImagesCoins/10L110.png","188","test",",","image-keyboard-response","176","184910","0.0-3.0-1.86","true"
"899","ImagesCoins/10R105.png","190","test",".","image-keyboard-response","178","186311","0.0-3.0-1.87","true"
"1065","ImagesCoins/10R100.png","190","test",".","image-keyboard-response","180","187880","0.0-3.0-1.88","true"
"1175","ImagesCoins/10R97.5.png","188","test",",","image-keyboard-response","182","189559","0.0-3.0-1.89","true"
"1497","ImagesTennis/TR107.5.png","190","test",".","image-keyboard-response","184","191559","0.0-4.0-1.0","true"
"2033","ImagesSoccer/VL97.5.png","190","test",".","image-keyboard-response","186","194095","0.0-4.0-1.1","true"
"1105","ImagesTennis/TR110.png","190","test",".","image-keyboard-response","188","195703","0.0-4.0-1.2","true"
"1177","ImagesSoccer/VL105.png","188","test",",","image-keyboard-response","190","197383","0.0-4.0-1.3","true"
"1480","ImagesDirect/VR95.png","190","test",",","image-keyboard-response","192","199368","0.0-4.0-1.4","false"
"840","ImagesSoccer/VR107.5.png","190","test",".","image-keyboard-response","194","200711","0.0-4.0-1.5","true"
"888","ImagesDirect/VR102.5.png","190","test",".","image-keyboard-response","196","202103","0.0-4.0-1.6","true"
"1016","ImagesTennis/TR92.5.png","188","test",",","image-keyboard-response","198","203623","0.0-4.0-1.7","true"
"1057","ImagesTennis/TL102.5.png","190","test",",","image-keyboard-response","200","205183","0.0-4.0-1.8","false"
"1440","ImagesDirect/VL102.5.png","188","test",",","image-keyboard-response","202","207127","0.0-4.0-1.9","true"
"2339","ImagesSoccer/VR95.png","190","test",",","image-keyboard-response","204","209968","0.0-4.0-1.10","false"
"1029","ImagesSoccer/VR100.png","190","test",".","image-keyboard-response","206","211503","0.0-4.0-1.11","true"
"1297","ImagesTennis/TR97.5.png","188","test",",","image-keyboard-response","208","213302","0.0-4.0-1.12","true"
"762","ImagesTennis/TL97.5.png","190","test",".","image-keyboard-response","210","214566","0.0-4.0-1.13","true"
"972","ImagesDirect/VL110.png","188","test",",","image-keyboard-response","212","216039","0.0-4.0-1.14","true"
"770","ImagesSoccer/VR102.5.png","190","test",".","image-keyboard-response","214","217311","0.0-4.0-1.15","true"
"1337","ImagesDirect/VL90.png","190","test",".","image-keyboard-response","216","219151","0.0-4.0-1.16","true"
"1514","ImagesTennis/TR95.png","188","test",",","image-keyboard-response","218","221168","0.0-4.0-1.17","true"
"905","ImagesSoccer/VL90.png","190","test",".","image-keyboard-response","220","222575","0.0-4.0-1.18","true"
"1673","ImagesDirect/VL100.png","188","test",".","image-keyboard-response","222","224751","0.0-4.0-1.19","false"
"1184","ImagesSoccer/VL102.5.png","188","test",",","image-keyboard-response","224","226439","0.0-4.0-1.20","true"
"1049","ImagesTennis/TR90.png","188","test",",","image-keyboard-response","226","227991","0.0-4.0-1.21","true"
"720","ImagesSoccer/VL92.5.png","190","test",".","image-keyboard-response","228","229215","0.0-4.0-1.22","true"
"2321","ImagesTennis/TL110.png","188","test",",","image-keyboard-response","230","232040","0.0-4.0-1.23","true"
"663","ImagesDirect/VR110.png","190","test",".","image-keyboard-response","232","233206","0.0-4.0-1.24","true"
"1251","ImagesSoccer/VR90.png","188","test",",","image-keyboard-response","234","234960","0.0-4.0-1.25","true"
"975","ImagesSoccer/VL110.png","188","test",",","image-keyboard-response","236","236438","0.0-4.0-1.26","true"
"1283","ImagesDirect/VR90.png","188","test",",","image-keyboard-response","238","238223","0.0-4.0-1.27","true"
"713","ImagesSoccer/VR105.png","190","test",".","image-keyboard-response","240","239438","0.0-4.0-1.28","true"
"1188","ImagesTennis/TR100.png","188","test",".","image-keyboard-response","242","241127","0.0-4.0-1.29","false"
"1169","ImagesTennis/TR102.5.png","188","test",".","image-keyboard-response","244","242800","0.0-4.0-1.30","false"
"2552","ImagesTennis/TR105.png","188","test",".","image-keyboard-response","246","245855","0.0-4.0-1.31","false"
"1145","ImagesDirect/VL105.png","188","test",",","image-keyboard-response","248","247503","0.0-4.0-1.32","true"
"834","ImagesDirect/VR107.5.png","190","test",".","image-keyboard-response","250","248839","0.0-4.0-1.33","true"
"977","ImagesDirect/VL107.5.png","188","test",",","image-keyboard-response","252","250319","0.0-4.0-1.34","true"
"1064","ImagesSoccer/VL100.png","188","test",".","image-keyboard-response","254","251887","0.0-4.0-1.35","false"
"1643","ImagesDirect/VL95.png","190","test",".","image-keyboard-response","256","254032","0.0-4.0-1.36","true"
"1431","ImagesDirect/VR97.5.png","188","test",",","image-keyboard-response","258","255967","0.0-4.0-1.37","true"
"1368","ImagesTennis/TL107.5.png","190","test",",","image-keyboard-response","260","257839","0.0-4.0-1.38","false"
"1041","ImagesSoccer/VL95.png","190","test",".","image-keyboard-response","262","259383","0.0-4.0-1.39","true"
"1073","ImagesSoccer/VR92.5.png","188","test",",","image-keyboard-response","264","260959","0.0-4.0-1.40","true"
"1009","ImagesSoccer/VR97.5.png","190","test",",","image-keyboard-response","266","262472","0.0-4.0-1.41","false"
"793","ImagesSoccer/VR110.png","190","test",".","image-keyboard-response","268","263767","0.0-4.0-1.42","true"
"1330","ImagesDirect/VR92.5.png","188","test",",","image-keyboard-response","270","265600","0.0-4.0-1.43","true"
"2553","ImagesDirect/VL92.5.png","188","test",".","image-keyboard-response","272","268657","0.0-4.0-1.44","false"
"1087","ImagesTennis/TL100.png","190","test",".","image-keyboard-response","274","270247","0.0-4.0-1.45","true"
"1009","ImagesTennis/TL92.5.png","190","test",".","image-keyboard-response","276","271759","0.0-4.0-1.46","true"
"729","ImagesSoccer/VL107.5.png","188","test",",","image-keyboard-response","278","272991","0.0-4.0-1.47","true"
"1121","ImagesTennis/TL105.png","188","test",",","image-keyboard-response","280","274614","0.0-4.0-1.48","true"
"925","ImagesTennis/TL95.png","190","test",".","image-keyboard-response","282","276040","0.0-4.0-1.49","true"
"1416","ImagesDirect/VL97.5.png","188","test",".","image-keyboard-response","284","277960","0.0-4.0-1.50","false"
"953","ImagesTennis/TL90.png","190","test",".","image-keyboard-response","286","279415","0.0-4.0-1.51","true"
"1585","ImagesDirect/VR100.png","190","test",".","image-keyboard-response","288","281503","0.0-4.0-1.52","true"
"777","ImagesDirect/VR105.png","190","test",".","image-keyboard-response","290","282783","0.0-4.0-1.53","true"
"1409","ImagesDirect/VL95.png","188","test",".","image-keyboard-response","292","284695","0.0-4.0-1.54","false"
"1177","ImagesDirect/VL100.png","188","test",".","image-keyboard-response","294","286376","0.0-4.0-1.55","false"
"2015","ImagesSoccer/VR102.5.png","190","test",".","image-keyboard-response","296","288895","0.0-4.0-1.56","true"
"1368","ImagesDirect/VR92.5.png","188","test",",","image-keyboard-response","298","290767","0.0-4.0-1.57","true"
"1200","ImagesTennis/TR97.5.png","188","test",",","image-keyboard-response","300","292471","0.0-4.0-1.58","true"
"872","ImagesDirect/VR95.png","190","test",",","image-keyboard-response","302","293847","0.0-4.0-1.59","false"
"833","ImagesDirect/VR105.png","190","test",".","image-keyboard-response","304","295183","0.0-4.0-1.60","true"
"978","ImagesTennis/TR107.5.png","190","test",".","image-keyboard-response","306","296665","0.0-4.0-1.61","true"
"1390","ImagesDirect/VL102.5.png","188","test",",","image-keyboard-response","308","298559","0.0-4.0-1.62","true"
"1120","ImagesSoccer/VL110.png","188","test",",","image-keyboard-response","310","300183","0.0-4.0-1.63","true"
"1393","ImagesSoccer/VL105.png","188","test",",","image-keyboard-response","312","302080","0.0-4.0-1.64","true"
"2033","ImagesDirect/VL97.5.png","190","test",".","image-keyboard-response","314","304614","0.0-4.0-1.65","true"
"994","ImagesSoccer/VR92.5.png","188","test",",","image-keyboard-response","316","306111","0.0-4.0-1.66","true"
"984","ImagesSoccer/VL95.png","190","test",".","image-keyboard-response","318","307600","0.0-4.0-1.67","true"
"2194","ImagesSoccer/VR95.png","188","test",",","image-keyboard-response","320","310297","0.0-4.0-1.68","true"
"1390","ImagesDirect/VR100.png","190","test",".","image-keyboard-response","322","312190","0.0-4.0-1.69","true"
"2410","ImagesSoccer/VR90.png","188","test",",","image-keyboard-response","324","315103","0.0-4.0-1.70","true"
"913","ImagesTennis/TL92.5.png","190","test",".","image-keyboard-response","326","316519","0.0-4.0-1.71","true"
"1066","ImagesSoccer/VR100.png","190","test",".","image-keyboard-response","328","318088","0.0-4.0-1.72","true"
"1471","ImagesTennis/TR105.png","190","test",".","image-keyboard-response","330","320063","0.0-4.0-1.73","true"
"1113","ImagesDirect/VR107.5.png","190","test",".","image-keyboard-response","332","321680","0.0-4.0-1.74","true"
"1096","ImagesTennis/TL95.png","190","test",".","image-keyboard-response","334","323279","0.0-4.0-1.75","true"
"920","ImagesSoccer/VR110.png","190","test",".","image-keyboard-response","336","324703","0.0-4.0-1.76","true"
"2169","ImagesTennis/TL102.5.png","188","test",",","image-keyboard-response","338","327375","0.0-4.0-1.77","true"
"865","ImagesDirect/VL110.png","188","test",",","image-keyboard-response","340","328744","0.0-4.0-1.78","true"
"1152","ImagesDirect/VL105.png","188","test",",","image-keyboard-response","342","330399","0.0-4.0-1.79","true"
"816","ImagesTennis/TL90.png","190","test",".","image-keyboard-response","344","331719","0.0-4.0-1.80","true"
"2113","ImagesSoccer/VL92.5.png","190","test",".","image-keyboard-response","346","334335","0.0-4.0-1.81","true"
"1120","ImagesSoccer/VL97.5.png","188","test",".","image-keyboard-response","348","335959","0.0-4.0-1.82","false"
"761","ImagesDirect/VR102.5.png","190","test",".","image-keyboard-response","350","337223","0.0-4.0-1.83","true"
"1218","ImagesTennis/TL97.5.png","190","test",".","image-keyboard-response","352","338944","0.0-4.0-1.84","true"
"2064","ImagesTennis/TR110.png","190","test",".","image-keyboard-response","354","341511","0.0-4.0-1.85","true"
"1496","ImagesTennis/TL105.png","188","test",",","image-keyboard-response","356","343512","0.0-4.0-1.86","true"
"1072","ImagesTennis/TR102.5.png","188","test",".","image-keyboard-response","358","345087","0.0-4.0-1.87","false"
"976","ImagesSoccer/VR97.5.png","188","test",",","image-keyboard-response","360","346567","0.0-4.0-1.88","true"
"688","ImagesDirect/VR110.png","190","test",".","image-keyboard-response","362","347759","0.0-4.0-1.89","true"
"993","ImagesDirect/VL107.5.png","188","test",",","image-keyboard-response","364","349256","0.0-4.0-1.90","true"
"1063","ImagesSoccer/VL107.5.png","188","test",",","image-keyboard-response","366","350823","0.0-4.0-1.91","true"
"1185","ImagesSoccer/VL100.png","188","test",".","image-keyboard-response","368","352512","0.0-4.0-1.92","false"
"2136","ImagesTennis/TL107.5.png","188","test",",","image-keyboard-response","370","355152","0.0-4.0-1.93","true"
"1039","ImagesDirect/VR97.5.png","190","test",",","image-keyboard-response","372","356695","0.0-4.0-1.94","false"
"1337","ImagesSoccer/VR105.png","190","test",".","image-keyboard-response","374","358535","0.0-4.0-1.95","true"
"857","ImagesTennis/TR100.png","188","test",".","image-keyboard-response","376","359896","0.0-4.0-1.96","false"
"1327","ImagesDirect/VR90.png","188","test",",","image-keyboard-response","378","361727","0.0-4.0-1.97","true"
"904","ImagesTennis/TL100.png","190","test",".","image-keyboard-response","380","363135","0.0-4.0-1.98","true"
"1087","ImagesDirect/VL92.5.png","188","test",".","image-keyboard-response","382","364726","0.0-4.0-1.99","false"
"1459","ImagesTennis/TL110.png","190","test",",","image-keyboard-response","384","366688","0.0-4.0-1.100","false"
"1505","ImagesDirect/VL90.png","190","test",".","image-keyboard-response","386","368695","0.0-4.0-1.101","true"
"976","ImagesSoccer/VR107.5.png","190","test",".","image-keyboard-response","388","370174","0.0-4.0-1.102","true"
"1018","ImagesTennis/TR92.5.png","188","test",",","image-keyboard-response","390","371695","0.0-4.0-1.103","true"
"987","ImagesSoccer/VL90.png","190","test",".","image-keyboard-response","392","373191","0.0-4.0-1.104","true"
"929","ImagesTennis/TR95.png","188","test",",","image-keyboard-response","394","374623","0.0-4.0-1.105","true"
"1033","ImagesTennis/TR90.png","188","test",",","image-keyboard-response","396","376159","0.0-4.0-1.106","true"
"1960","ImagesSoccer/VL102.5.png","188","test",",","image-keyboard-response","398","378623","0.0-4.0-1.107","true"
"1786","ImagesTennis/TL100.png","190","test",".","image-keyboard-response","400","380912","0.0-4.0-1.108","true"
"920","ImagesSoccer/VR90.png","188","test",",","image-keyboard-response","402","382335","0.0-4.0-1.109","true"
"1001","ImagesSoccer/VL100.png","188","test",".","image-keyboard-response","404","383839","0.0-4.0-1.110","false"
"753","ImagesTennis/TL97.5.png","190","test",".","image-keyboard-response","406","385095","0.0-4.0-1.111","true"
"906","ImagesSoccer/VL92.5.png","190","test",".","image-keyboard-response","408","386503","0.0-4.0-1.112","true"
"880","ImagesSoccer/VL102.5.png","188","test",",","image-keyboard-response","410","387888","0.0-4.0-1.113","true"
"857","ImagesDirect/VR107.5.png","190","test",".","image-keyboard-response","412","389248","0.0-4.0-1.114","true"
"904","ImagesDirect/VL105.png","188","test",",","image-keyboard-response","414","390655","0.0-4.0-1.115","true"
"712","ImagesDirect/VR97.5.png","190","test",",","image-keyboard-response","416","391872","0.0-4.0-1.116","false"
"1024","ImagesTennis/TR97.5.png","188","test",",","image-keyboard-response","418","393399","0.0-4.0-1.117","true"
"952","ImagesSoccer/VR92.5.png","188","test",",","image-keyboard-response","420","394854","0.0-4.0-1.118","true"
"986","ImagesDirect/VL110.png","188","test",",","image-keyboard-response","422","396343","0.0-4.0-1.119","true"
"1168","ImagesSoccer/VL110.png","188","test",",","image-keyboard-response","424","398015","0.0-4.0-1.120","true"
"1072","ImagesTennis/TR105.png","190","test",".","image-keyboard-response","426","399591","0.0-4.0-1.121","true"
"1112","ImagesDirect/VL90.png","188","test",".","image-keyboard-response","428","401207","0.0-4.0-1.122","false"
"1024","ImagesSoccer/VR95.png","188","test",",","image-keyboard-response","430","402736","0.0-4.0-1.123","true"
"793","ImagesDirect/VR105.png","190","test",".","image-keyboard-response","432","404031","0.0-4.0-1.124","true"
"1120","ImagesTennis/TR100.png","188","test",".","image-keyboard-response","434","405655","0.0-4.0-1.125","false"
"1321","ImagesTennis/TL107.5.png","188","test",",","image-keyboard-response","436","407479","0.0-4.0-1.126","true"
"768","ImagesTennis/TL92.5.png","190","test",".","image-keyboard-response","438","408751","0.0-4.0-1.127","true"
"962","ImagesSoccer/VL107.5.png","188","test",",","image-keyboard-response","440","410217","0.0-4.0-1.128","true"
"831","ImagesSoccer/VR102.5.png","190","test",".","image-keyboard-response","442","411551","0.0-4.0-1.129","true"
"1370","ImagesDirect/VR90.png","188","test",",","image-keyboard-response","444","413424","0.0-4.0-1.130","true"
"1039","ImagesSoccer/VR100.png","188","test",".","image-keyboard-response","446","414967","0.0-4.0-1.131","false"
"1232","ImagesTennis/TL105.png","190","test",",","image-keyboard-response","448","416703","0.0-4.0-1.132","false"
"872","ImagesTennis/TR92.5.png","188","test",",","image-keyboard-response","450","418079","0.0-4.0-1.133","true"
"889","ImagesTennis/TR107.5.png","190","test",".","image-keyboard-response","452","419471","0.0-4.0-1.134","true"
"818","ImagesDirect/VL107.5.png","188","test",",","image-keyboard-response","454","420791","0.0-4.0-1.135","true"
"777","ImagesTennis/TL90.png","190","test",".","image-keyboard-response","456","422071","0.0-4.0-1.136","true"
"1144","ImagesDirect/VR95.png","188","test",",","image-keyboard-response","458","423720","0.0-4.0-1.137","true"
"1484","ImagesDirect/VL97.5.png","188","test",".","image-keyboard-response","460","425711","0.0-4.0-1.138","false"
"1401","ImagesDirect/VL95.png","188","test",".","image-keyboard-response","462","427615","0.0-4.0-1.139","false"
"1048","ImagesSoccer/VL90.png","190","test",".","image-keyboard-response","464","429167","0.0-4.0-1.140","true"
"961","ImagesSoccer/VL95.png","190","test",".","image-keyboard-response","466","430631","0.0-4.0-1.141","true"
"1632","ImagesTennis/TR110.png","190","test",".","image-keyboard-response","468","432767","0.0-4.0-1.142","true"
"1032","ImagesTennis/TL95.png","190","test",".","image-keyboard-response","470","434302","0.0-4.0-1.143","true"
"859","ImagesTennis/TL110.png","188","test",",","image-keyboard-response","472","435664","0.0-4.0-1.144","true"
"744","ImagesSoccer/VR107.5.png","190","test",".","image-keyboard-response","474","436911","0.0-4.0-1.145","true"
"1010","ImagesDirect/VR92.5.png","188","test",",","image-keyboard-response","476","438423","0.0-4.0-1.146","true"
"1033","ImagesTennis/TL102.5.png","188","test",",","image-keyboard-response","478","439959","0.0-4.0-1.147","true"
"1722","ImagesDirect/VL92.5.png","190","test",".","image-keyboard-response","480","442183","0.0-4.0-1.148","true"
"1065","ImagesTennis/TR90.png","188","test",",","image-keyboard-response","482","443751","0.0-4.0-1.149","true"
"1016","ImagesDirect/VL100.png","188","test",".","image-keyboard-response","484","445272","0.0-4.0-1.150","false"
"904","ImagesDirect/VR100.png","190","test",".","image-keyboard-response","486","446679","0.0-4.0-1.151","true"
"904","ImagesSoccer/VR105.png","190","test",".","image-keyboard-response","488","448087","0.0-4.0-1.152","true"
"970","ImagesSoccer/VR110.png","190","test",".","image-keyboard-response","490","449559","0.0-4.0-1.153","true"
"1024","ImagesSoccer/VR97.5.png","188","test",",","image-keyboard-response","492","451087","0.0-4.0-1.154","true"
"1138","ImagesDirect/VL102.5.png","188","test",",","image-keyboard-response","494","452727","0.0-4.0-1.155","true"
"952","ImagesDirect/VR102.5.png","190","test",".","image-keyboard-response","496","454183","0.0-4.0-1.156","true"
"1761","ImagesSoccer/VL97.5.png","190","test",".","image-keyboard-response","498","456448","0.0-4.0-1.157","true"
"904","ImagesTennis/TR102.5.png","188","test",".","image-keyboard-response","500","457855","0.0-4.0-1.158","false"
"961","ImagesSoccer/VL105.png","188","test",",","image-keyboard-response","502","459319","0.0-4.0-1.159","true"
"1008","ImagesTennis/TR95.png","188","test",",","image-keyboard-response","504","460832","0.0-4.0-1.160","true"
"769","ImagesDirect/VR110.png","190","test",".","image-keyboard-response","506","462104","0.0-4.0-1.161","true"
"801","ImagesDirect/VR105.png","190","test",".","image-keyboard-response","508","463407","0.0-4.0-1.162","true"
"1145","ImagesDirect/VR100.png","190","test",".","image-keyboard-response","510","465055","0.0-4.0-1.163","true"
"1080","ImagesSoccer/VR107.5.png","190","test",".","image-keyboard-response","512","466640","0.0-4.0-1.164","true"
"1327","ImagesDirect/VL102.5.png","188","test",",","image-keyboard-response","514","468471","0.0-4.0-1.165","true"
"1280","ImagesSoccer/VL105.png","188","test",",","image-keyboard-response","516","470255","0.0-4.0-1.166","true"
"913","ImagesSoccer/VL97.5.png","190","test",".","image-keyboard-response","518","471672","0.0-4.0-1.167","true"
"1211","ImagesTennis/TR107.5.png","190","test",".","image-keyboard-response","520","473391","0.0-4.0-1.168","true"
"1633","ImagesDirect/VR95.png","188","test",",","image-keyboard-response","522","475527","0.0-4.0-1.169","true"
"1529","ImagesTennis/TL100.png","190","test",".","image-keyboard-response","524","477560","0.0-4.0-1.170","true"
"937","ImagesTennis/TR95.png","188","test",",","image-keyboard-response","526","478999","0.0-4.0-1.171","true"
"904","ImagesTennis/TL110.png","188","test",",","image-keyboard-response","528","480408","0.0-4.0-1.172","true"
"1248","ImagesTennis/TL102.5.png","190","test",",","image-keyboard-response","530","482159","0.0-4.0-1.173","false"
"1025","ImagesTennis/TR100.png","188","test",".","image-keyboard-response","532","483687","0.0-4.0-1.174","false"
"919","ImagesSoccer/VL90.png","190","test",".","image-keyboard-response","534","485110","0.0-4.0-1.175","true"
"1346","ImagesTennis/TL107.5.png","188","test",",","image-keyboard-response","536","486959","0.0-4.0-1.176","true"
"1105","ImagesDirect/VR90.png","188","test",",","image-keyboard-response","538","488568","0.0-4.0-1.177","true"
"752","ImagesTennis/TL90.png","190","test",".","image-keyboard-response","540","489823","0.0-4.0-1.178","true"
"1409","ImagesTennis/TL105.png","188","test",",","image-keyboard-response","542","491736","0.0-4.0-1.179","true"
"728","ImagesTennis/TL92.5.png","190","test",".","image-keyboard-response","544","492967","0.0-4.0-1.180","true"
"896","ImagesSoccer/VR90.png","188","test",",","image-keyboard-response","546","494367","0.0-4.0-1.181","true"
"785","ImagesDirect/VL105.png","188","test",",","image-keyboard-response","548","495655","0.0-4.0-1.182","true"
"777","ImagesSoccer/VR100.png","190","test",".","image-keyboard-response","550","496935","0.0-4.0-1.183","true"
"1138","ImagesDirect/VR92.5.png","188","test",",","image-keyboard-response","552","498576","0.0-4.0-1.184","true"
"927","ImagesSoccer/VL102.5.png","188","test",",","image-keyboard-response","554","500006","0.0-4.0-1.185","true"
"953","ImagesTennis/TR92.5.png","188","test",",","image-keyboard-response","556","501463","0.0-4.0-1.186","true"
"858","ImagesSoccer/VR110.png","190","test",".","image-keyboard-response","558","502824","0.0-4.0-1.187","true"
"1048","ImagesDirect/VL97.5.png","188","test",".","image-keyboard-response","560","504376","0.0-4.0-1.188","false"
"841","ImagesDirect/VL107.5.png","188","test",",","image-keyboard-response","562","505719","0.0-4.0-1.189","true"
"890","ImagesTennis/TR90.png","188","test",",","image-keyboard-response","564","507111","0.0-4.0-1.190","true"
"1026","ImagesSoccer/VL107.5.png","188","test",",","image-keyboard-response","566","508640","0.0-4.0-1.191","true"
"1031","ImagesDirect/VL100.png","188","test",".","image-keyboard-response","568","510175","0.0-4.0-1.192","false"
"1538","ImagesSoccer/VR92.5.png","188","test",",","image-keyboard-response","570","512217","0.0-4.0-1.193","true"
"1312","ImagesSoccer/VR97.5.png","188","test",",","image-keyboard-response","572","514032","0.0-4.0-1.194","true"
"952","ImagesDirect/VL110.png","188","test",",","image-keyboard-response","574","515487","0.0-4.0-1.195","true"
"891","ImagesDirect/VL90.png","190","test",".","image-keyboard-response","576","516887","0.0-4.0-1.196","true"
"1135","ImagesSoccer/VR105.png","190","test",".","image-keyboard-response","578","518527","0.0-4.0-1.197","true"
"961","ImagesDirect/VR110.png","190","test",".","image-keyboard-response","580","519992","0.0-4.0-1.198","true"
"889","ImagesSoccer/VL110.png","188","test",",","image-keyboard-response","582","521382","0.0-4.0-1.199","true"
"2106","ImagesSoccer/VR102.5.png","190","test",".","image-keyboard-response","584","523991","0.0-4.0-1.200","true"
"1096","ImagesTennis/TL97.5.png","190","test",".","image-keyboard-response","586","525591","0.0-4.0-1.201","true"
"1849","ImagesTennis/TR105.png","190","test",".","image-keyboard-response","588","527943","0.0-4.0-1.202","true"
"976","ImagesTennis/TR102.5.png","188","test",".","image-keyboard-response","590","529423","0.0-4.0-1.203","false"
"929","ImagesTennis/TR110.png","190","test",".","image-keyboard-response","592","530855","0.0-4.0-1.204","true"
"817","ImagesDirect/VR107.5.png","190","test",".","image-keyboard-response","594","532175","0.0-4.0-1.205","true"
"881","ImagesTennis/TR97.5.png","188","test",",","image-keyboard-response","596","533559","0.0-4.0-1.206","true"
"1440","ImagesDirect/VR97.5.png","190","test",",","image-keyboard-response","598","535503","0.0-4.0-1.207","false"
"1535","ImagesSoccer/VL92.5.png","190","test",".","image-keyboard-response","600","537543","0.0-4.0-1.208","true"
"1048","ImagesDirect/VL95.png","188","test",".","image-keyboard-response","602","539095","0.0-4.0-1.209","false"
"944","ImagesTennis/TL95.png","190","test",".","image-keyboard-response","604","540543","0.0-4.0-1.210","true"
"1440","ImagesSoccer/VR95.png","188","test",",","image-keyboard-response","606","542487","0.0-4.0-1.211","true"
"1623","ImagesDirect/VL92.5.png","190","test",".","image-keyboard-response","608","544614","0.0-4.0-1.212","true"
"1034","ImagesSoccer/VL100.png","188","test",".","image-keyboard-response","610","546151","0.0-4.0-1.213","false"
"890","ImagesDirect/VR102.5.png","190","test",".","image-keyboard-response","612","547543","0.0-4.0-1.214","true"
"1543","ImagesSoccer/VL95.png","190","test",".","image-keyboard-response","614","549592","0.0-4.0-1.215","true"
"1176","ImagesTennis/TR97.5.png","188","test",",","image-keyboard-response","616","551271","0.0-4.0-1.216","true"
"1113","ImagesTennis/TR105.png","190","test",".","image-keyboard-response","618","552887","0.0-4.0-1.217","true"
"1758","ImagesSoccer/VR100.png","188","test",".","image-keyboard-response","620","555151","0.0-4.0-1.218","false"
"1112","ImagesSoccer/VR92.5.png","188","test",",","image-keyboard-response","622","556767","0.0-4.0-1.219","true"
"2368","ImagesSoccer/VL97.5.png","190","test",".","image-keyboard-response","624","559639","0.0-4.0-1.220","true"
"974","ImagesTennis/TR110.png","190","test",".","image-keyboard-response","626","561119","0.0-4.0-1.221","true"
"929","ImagesTennis/TR92.5.png","188","test",",","image-keyboard-response","628","562551","0.0-4.0-1.222","true"
"808","ImagesSoccer/VL95.png","190","test",".","image-keyboard-response","630","563862","0.0-4.0-1.223","true"
"1762","ImagesDirect/VR97.5.png","190","test",",","image-keyboard-response","632","566125","0.0-4.0-1.224","false"
"1435","ImagesTennis/TL97.5.png","190","test",".","image-keyboard-response","634","568063","0.0-4.0-1.225","true"
"2001","ImagesDirect/VL105.png","188","test",",","image-keyboard-response","636","570567","0.0-4.0-1.226","true"
"1111","ImagesTennis/TL110.png","188","test",",","image-keyboard-response","638","572183","0.0-4.0-1.227","true"
"1458","ImagesSoccer/VL107.5.png","188","test",",","image-keyboard-response","640","574143","0.0-4.0-1.228","true"
"999","ImagesTennis/TR95.png","188","test",",","image-keyboard-response","642","575647","0.0-4.0-1.229","true"
"977","ImagesTennis/TL107.5.png","188","test",",","image-keyboard-response","644","577126","0.0-4.0-1.230","true"
"768","ImagesSoccer/VL110.png","188","test",",","image-keyboard-response","646","578398","0.0-4.0-1.231","true"
"720","ImagesDirect/VR107.5.png","190","test",".","image-keyboard-response","648","579622","0.0-4.0-1.232","true"
"833","ImagesSoccer/VL90.png","190","test",".","image-keyboard-response","650","580959","0.0-4.0-1.233","true"
"1104","ImagesTennis/TL100.png","190","test",".","image-keyboard-response","652","582567","0.0-4.0-1.234","true"
"1007","ImagesTennis/TR90.png","188","test",",","image-keyboard-response","654","584078","0.0-4.0-1.235","true"
"1121","ImagesDirect/VL97.5.png","188","test",".","image-keyboard-response","656","585703","0.0-4.0-1.236","false"
"999","ImagesDirect/VL107.5.png","188","test",",","image-keyboard-response","658","587206","0.0-4.0-1.237","true"
"976","ImagesDirect/VR110.png","190","test",".","image-keyboard-response","660","588686","0.0-4.0-1.238","true"
"800","ImagesDirect/VR105.png","190","test",".","image-keyboard-response","662","589990","0.0-4.0-1.239","true"
"887","ImagesDirect/VL100.png","188","test",".","image-keyboard-response","664","591382","0.0-4.0-1.240","false"
"1416","ImagesSoccer/VL102.5.png","188","test",",","image-keyboard-response","666","593302","0.0-4.0-1.241","true"
"865","ImagesTennis/TL95.png","190","test",".","image-keyboard-response","668","594670","0.0-4.0-1.242","true"
"1160","ImagesDirect/VR90.png","188","test",",","image-keyboard-response","670","596335","0.0-4.0-1.243","true"
"1015","ImagesSoccer/VR105.png","190","test",".","image-keyboard-response","672","597854","0.0-4.0-1.244","true"
"984","ImagesTennis/TR100.png","188","test",".","image-keyboard-response","674","599342","0.0-4.0-1.245","false"
"1016","ImagesTennis/TL105.png","188","test",",","image-keyboard-response","676","600862","0.0-4.0-1.246","true"
"881","ImagesDirect/VL92.5.png","190","test",".","image-keyboard-response","678","602246","0.0-4.0-1.247","true"
"1457","ImagesDirect/VR100.png","190","test",".","image-keyboard-response","680","604206","0.0-4.0-1.248","true"
"696","ImagesSoccer/VR102.5.png","190","test",".","image-keyboard-response","682","605405","0.0-4.0-1.249","true"
"1028","ImagesTennis/TR102.5.png","188","test",".","image-keyboard-response","684","606935","0.0-4.0-1.250","false"
"1903","ImagesDirect/VR92.5.png","188","test",",","image-keyboard-response","686","609342","0.0-4.0-1.251","true"
"801","ImagesSoccer/VR95.png","188","test",",","image-keyboard-response","688","610646","0.0-4.0-1.252","true"
"1230","ImagesSoccer/VR90.png","188","test",",","image-keyboard-response","690","612382","0.0-4.0-1.253","true"
"800","ImagesTennis/TL92.5.png","190","test",".","image-keyboard-response","692","613686","0.0-4.0-1.254","true"
"1041","ImagesSoccer/VL92.5.png","190","test",".","image-keyboard-response","694","615231","0.0-4.0-1.255","true"
"1729","ImagesDirect/VL95.png","190","test",".","image-keyboard-response","696","617463","0.0-4.0-1.256","true"
"784","ImagesTennis/TL90.png","190","test",".","image-keyboard-response","698","618750","0.0-4.0-1.257","true"
"1465","ImagesTennis/TR107.5.png","190","test",".","image-keyboard-response","700","620718","0.0-4.0-1.258","true"
"729","ImagesDirect/VL110.png","188","test",",","image-keyboard-response","702","621951","0.0-4.0-1.259","true"
"1224","ImagesDirect/VL90.png","190","test",".","image-keyboard-response","704","623678","0.0-4.0-1.260","true"
"986","ImagesTennis/TL102.5.png","190","test",",","image-keyboard-response","706","625168","0.0-4.0-1.261","false"
"1341","ImagesDirect/VR95.png","190","test",",","image-keyboard-response","708","627014","0.0-4.0-1.262","false"
"976","ImagesSoccer/VL100.png","188","test",".","image-keyboard-response","710","628495","0.0-4.0-1.263","false"
"1675","ImagesSoccer/VR97.5.png","188","test",",","image-keyboard-response","712","630678","0.0-4.0-1.264","true"
"705","ImagesSoccer/VR107.5.png","190","test",".","image-keyboard-response","714","631886","0.0-4.0-1.265","true"
"2567","ImagesSoccer/VL105.png","188","test",",","image-keyboard-response","716","634957","0.0-4.0-1.266","true"
"867","ImagesSoccer/VR110.png","190","test",".","image-keyboard-response","718","636326","0.0-4.0-1.267","true"
"1041","ImagesDirect/VL102.5.png","188","test",",","image-keyboard-response","720","637870","0.0-4.0-1.268","true"
"906","ImagesDirect/VR102.5.png","190","test",".","image-keyboard-response","722","639279","0.0-4.0-1.269","true"
