"rt","stimulus","key_press","test_part","correct_response","trial_type","trial_index","time_elapsed","internal_node_id","correct"
"22557","ImagesTennis/TR105.png","188","test",".","image-keyboard-response","4","65452","0.0-3.0-1.0","false"
"4913","ImagesSoccer/VL97.5.png","188","test",".","image-keyboard-response","6","70870","0.0-3.0-1.1","false"
"2170","ImagesSoccer/VL105.png","188","test",",","image-keyboard-response","8","73546","0.0-3.0-1.2","true"
"1475","ImagesSoccer/VL110.png","188","test",",","image-keyboard-response","10","75526","0.0-3.0-1.3","true"
"1450","ImagesTennis/TL100.png","190","test",".","image-keyboard-response","12","77481","0.0-3.0-1.4","true"
"1441","ImagesSoccer/VR102.5.png","190","test",".","image-keyboard-response","14","79427","0.0-3.0-1.5","true"
"2293","ImagesDirect/VR92.5.png","190","test",",","image-keyboard-response","16","82226","0.0-3.0-1.6","false"
"1654","ImagesTennis/TR97.5.png","188","test",",","image-keyboard-response","18","84383","0.0-3.0-1.7","true"
"1119","ImagesDirect/VL105.png","188","test",",","image-keyboard-response","20","86007","0.0-3.0-1.8","true"
"1007","ImagesDirect/VR105.png","190","test",".","image-keyboard-response","22","87519","0.0-3.0-1.9","true"
"1357","ImagesTennis/TL95.png","190","test",".","image-keyboard-response","24","89381","0.0-3.0-1.10","true"
"960","ImagesDirect/VR110.png","190","test",".","image-keyboard-response","26","90847","0.0-3.0-1.11","true"
"2380","ImagesSoccer/VL95.png","188","test",".","image-keyboard-response","28","93731","0.0-3.0-1.12","false"
"2564","ImagesDirect/VL92.5.png","190","test",".","image-keyboard-response","30","96799","0.0-3.0-1.13","true"
"828","ImagesSoccer/VR100.png","190","test",".","image-keyboard-response","32","98132","0.0-3.0-1.14","true"
"1571","ImagesDirect/VL95.png","190","test",".","image-keyboard-response","34","100208","0.0-3.0-1.15","true"
"1259","ImagesDirect/VR102.5.png","190","test",".","image-keyboard-response","36","101972","0.0-3.0-1.16","true"
"1435","ImagesSoccer/VR92.5.png","190","test",",","image-keyboard-response","38","103912","0.0-3.0-1.17","false"
"1320","ImagesDirect/VL90.png","190","test",".","image-keyboard-response","40","105737","0.0-3.0-1.18","true"
"3339","ImagesSoccer/VR97.5.png","190","test",",","image-keyboard-response","42","109581","0.0-3.0-1.19","false"
"2718","ImagesTennis/TR95.png","188","test",",","image-keyboard-response","44","112803","0.0-3.0-1.20","true"
"1198","ImagesTennis/TR90.png","188","test",",","image-keyboard-response","46","114507","0.0-3.0-1.21","true"
"3843","ImagesDirect/VR90.png","188","test",",","image-keyboard-response","48","118855","0.0-3.0-1.22","true"
"1832","ImagesTennis/TL105.png","188","test",",","image-keyboard-response","50","121192","0.0-3.0-1.23","true"
"1111","ImagesSoccer/VR105.png","190","test",".","image-keyboard-response","52","122808","0.0-3.0-1.24","true"
"1004","ImagesTennis/TR110.png","190","test",".","image-keyboard-response","54","124316","0.0-3.0-1.25","true"
"923","ImagesDirect/VR107.5.png","190","test",".","image-keyboard-response","56","125745","0.0-3.0-1.26","true"
"1156","ImagesSoccer/VL102.5.png","188","test",",","image-keyboard-response","58","127406","0.0-3.0-1.27","true"
"1034","ImagesDirect/VL110.png","188","test",",","image-keyboard-response","60","128945","0.0-3.0-1.28","true"
"749","ImagesDirect/VR100.png","190","test",".","image-keyboard-response","62","130199","0.0-3.0-1.29","true"
"1144","ImagesDirect/VR95.png","190","test",",","image-keyboard-response","64","131848","0.0-3.0-1.30","false"
"795","ImagesSoccer/VR90.png","190","test",",","image-keyboard-response","66","133148","0.0-3.0-1.31","false"
"752","ImagesSoccer/VL107.5.png","188","test",",","image-keyboard-response","68","134405","0.0-3.0-1.32","true"
"776","ImagesDirect/VR97.5.png","190","test",",","image-keyboard-response","70","135686","0.0-3.0-1.33","false"
"1352","ImagesTennis/TL90.png","190","test",".","image-keyboard-response","72","137543","0.0-3.0-1.34","true"
"3470","ImagesSoccer/VL90.png","190","test",".","image-keyboard-response","74","141518","0.0-3.0-1.35","true"
"761","ImagesSoccer/VR107.5.png","190","test",".","image-keyboard-response","76","142785","0.0-3.0-1.36","true"
"1856","ImagesDirect/VL97.5.png","188","test",".","image-keyboard-response","78","145146","0.0-3.0-1.37","false"
"2498","ImagesTennis/TL102.5.png","188","test",",","image-keyboard-response","80","148148","0.0-3.0-1.38","true"
"946","ImagesTennis/TL110.png","188","test",",","image-keyboard-response","82","149600","0.0-3.0-1.39","true"
"975","ImagesSoccer/VR95.png","190","test",",","image-keyboard-response","84","151080","0.0-3.0-1.40","false"
"939","ImagesDirect/VL107.5.png","188","test",",","image-keyboard-response","86","152523","0.0-3.0-1.41","true"
"1086","ImagesTennis/TR92.5.png","188","test",",","image-keyboard-response","88","154115","0.0-3.0-1.42","true"
"1106","ImagesSoccer/VL100.png","188","test",".","image-keyboard-response","90","155726","0.0-3.0-1.43","false"
"1275","ImagesTennis/TL97.5.png","190","test",".","image-keyboard-response","92","157505","0.0-3.0-1.44","true"
"1466","ImagesTennis/TR100.png","190","test",".","image-keyboard-response","94","159477","0.0-3.0-1.45","true"
"762","ImagesSoccer/VR110.png","190","test",".","image-keyboard-response","96","160744","0.0-3.0-1.46","true"
"1831","ImagesTennis/TR107.5.png","190","test",".","image-keyboard-response","98","163081","0.0-3.0-1.47","true"
"730","ImagesDirect/VL102.5.png","188","test",",","image-keyboard-response","100","164315","0.0-3.0-1.48","true"
"1321","ImagesTennis/TL92.5.png","190","test",".","image-keyboard-response","102","166141","0.0-3.0-1.49","true"
"1274","ImagesSoccer/VL92.5.png","190","test",".","image-keyboard-response","104","167920","0.0-3.0-1.50","true"
"809","ImagesTennis/TL107.5.png","188","test",",","image-keyboard-response","106","169234","0.0-3.0-1.51","true"
"1749","ImagesTennis/TR102.5.png","190","test",".","image-keyboard-response","108","171487","0.0-3.0-1.52","true"
"1362","ImagesDirect/VL100.png","188","test",".","image-keyboard-response","110","173354","0.0-3.0-1.53","false"
"875","ImagesSoccer/VR90.png","190","test",",","image-keyboard-response","112","174734","0.0-3.0-1.54","false"
"911","ImagesSoccer/VR102.5.png","190","test",".","image-keyboard-response","114","176149","0.0-3.0-1.55","true"
"803","ImagesTennis/TL95.png","188","test",".","image-keyboard-response","116","177457","0.0-3.0-1.56","false"
"806","ImagesSoccer/VL92.5.png","188","test",".","image-keyboard-response","118","178768","0.0-3.0-1.57","false"
"819","ImagesTennis/TL110.png","188","test",",","image-keyboard-response","120","180091","0.0-3.0-1.58","true"
"883","ImagesSoccer/VL107.5.png","188","test",",","image-keyboard-response","122","181478","0.0-3.0-1.59","true"
"850","ImagesDirect/VR107.5.png","190","test",".","image-keyboard-response","124","182833","0.0-3.0-1.60","true"
"943","ImagesTennis/TL92.5.png","188","test",".","image-keyboard-response","126","184281","0.0-3.0-1.61","false"
"1345","ImagesTennis/TL90.png","188","test",".","image-keyboard-response","128","186131","0.0-3.0-1.62","false"
"755","ImagesDirect/VL102.5.png","188","test",",","image-keyboard-response","130","187390","0.0-3.0-1.63","true"
"715","ImagesTennis/TL100.png","188","test",".","image-keyboard-response","132","188609","0.0-3.0-1.64","false"
"1108","ImagesSoccer/VR100.png","190","test",".","image-keyboard-response","134","190221","0.0-3.0-1.65","true"
"1023","ImagesDirect/VR105.png","190","test",".","image-keyboard-response","136","191748","0.0-3.0-1.66","true"
"1341","ImagesDirect/VR97.5.png","190","test",",","image-keyboard-response","138","193594","0.0-3.0-1.67","false"
"726","ImagesTennis/TR107.5.png","190","test",".","image-keyboard-response","140","194824","0.0-3.0-1.68","true"
"4221","ImagesDirect/VR92.5.png","190","test",",","image-keyboard-response","142","199549","0.0-3.0-1.69","false"
"813","ImagesTennis/TR105.png","190","test",".","image-keyboard-response","144","200867","0.0-3.0-1.70","true"
"724","ImagesDirect/VR102.5.png","190","test",".","image-keyboard-response","146","202095","0.0-3.0-1.71","true"
"683","ImagesTennis/TL102.5.png","188","test",",","image-keyboard-response","148","203282","0.0-3.0-1.72","true"
"693","ImagesDirect/VL107.5.png","188","test",",","image-keyboard-response","150","204479","0.0-3.0-1.73","true"
"898","ImagesDirect/VL105.png","188","test",",","image-keyboard-response","152","205881","0.0-3.0-1.74","true"
"728","ImagesDirect/VL100.png","188","test",".","image-keyboard-response","154","207114","0.0-3.0-1.75","false"
"660","ImagesTennis/TL107.5.png","188","test",",","image-keyboard-response","156","208279","0.0-3.0-1.76","true"
"642","ImagesTennis/TR90.png","190","test",",","image-keyboard-response","158","209426","0.0-3.0-1.77","false"
"783","ImagesTennis/TR100.png","190","test",".","image-keyboard-response","160","210714","0.0-3.0-1.78","true"
"1006","ImagesTennis/TL97.5.png","190","test",".","image-keyboard-response","162","212224","0.0-3.0-1.79","true"
"807","ImagesSoccer/VL102.5.png","188","test",",","image-keyboard-response","164","213535","0.0-3.0-1.80","true"
"2435","ImagesSoccer/VR92.5.png","188","test",",","image-keyboard-response","166","216475","0.0-3.0-1.81","true"
"722","ImagesTennis/TR110.png","190","test",".","image-keyboard-response","168","217701","0.0-3.0-1.82","true"
"3047","ImagesDirect/VL92.5.png","188","test",".","image-keyboard-response","170","221253","0.0-3.0-1.83","false"
"728","ImagesDirect/VL110.png","188","test",",","image-keyboard-response","172","222486","0.0-3.0-1.84","true"
"177","ImagesTennis/TR95.png","190","test",",","image-keyboard-response","174","223168","0.0-3.0-1.85","false"
"867","ImagesSoccer/VR107.5.png","190","test",".","image-keyboard-response","176","224540","0.0-3.0-1.86","true"
"534","ImagesSoccer/VR97.5.png","190","test",",","image-keyboard-response","178","225578","0.0-3.0-1.87","false"
"596","ImagesSoccer/VR105.png","190","test",".","image-keyboard-response","180","226679","0.0-3.0-1.88","true"
"1748","ImagesSoccer/VR95.png","190","test",",","image-keyboard-response","182","228932","0.0-3.0-1.89","false"
"876","ImagesSoccer/VL90.png","190","test",".","image-keyboard-response","184","230313","0.0-3.0-1.90","true"
"1115","ImagesDirect/VR100.png","190","test",".","image-keyboard-response","186","231934","0.0-3.0-1.91","true"
"2037","ImagesTennis/TL105.png","188","test",",","image-keyboard-response","188","234475","0.0-3.0-1.92","true"
"1275","ImagesSoccer/VL97.5.png","188","test",".","image-keyboard-response","190","236255","0.0-3.0-1.93","false"
"723","ImagesSoccer/VL110.png","188","test",",","image-keyboard-response","192","237483","0.0-3.0-1.94","true"
"787","ImagesSoccer/VL105.png","188","test",",","image-keyboard-response","194","238775","0.0-3.0-1.95","true"
"765","ImagesTennis/TR102.5.png","190","test",".","image-keyboard-response","196","240044","0.0-3.0-1.96","true"
"1019","ImagesSoccer/VL95.png","190","test",".","image-keyboard-response","198","241568","0.0-3.0-1.97","true"
"1334","ImagesSoccer/VL100.png","188","test",".","image-keyboard-response","200","243407","0.0-3.0-1.98","false"
"1965","ImagesTennis/TR97.5.png","188","test",",","image-keyboard-response","202","245877","0.0-3.0-1.99","true"
"1519","ImagesDirect/VL95.png","188","test",".","image-keyboard-response","204","247901","0.0-3.0-1.100","false"
"3122","ImagesDirect/VL90.png","190","test",".","image-keyboard-response","206","251528","0.0-3.0-1.101","true"
"1074","ImagesTennis/TR92.5.png","188","test",",","image-keyboard-response","208","253107","0.0-3.0-1.102","true"
"904","ImagesSoccer/VR110.png","190","test",".","image-keyboard-response","210","254516","0.0-3.0-1.103","true"
"1121","ImagesDirect/VL97.5.png","190","test",".","image-keyboard-response","212","256142","0.0-3.0-1.104","true"
"2138","ImagesDirect/VR95.png","190","test",",","image-keyboard-response","214","258785","0.0-3.0-1.105","false"
"930","ImagesDirect/VR110.png","190","test",".","image-keyboard-response","216","260220","0.0-3.0-1.106","true"
"769","ImagesDirect/VR90.png","188","test",",","image-keyboard-response","218","261494","0.0-3.0-1.107","true"
"935","ImagesTennis/TR100.png","190","test",".","image-keyboard-response","220","262934","0.0-3.0-1.108","true"
"1320","ImagesTennis/TL92.5.png","190","test",".","image-keyboard-response","222","264759","0.0-3.0-1.109","true"
"863","ImagesTennis/TR92.5.png","188","test",",","image-keyboard-response","224","266126","0.0-3.0-1.110","true"
"1008","ImagesTennis/TL107.5.png","188","test",",","image-keyboard-response","226","267639","0.0-3.0-1.111","true"
"628","ImagesTennis/TR110.png","190","test",".","image-keyboard-response","228","268772","0.0-3.0-1.112","true"
"666","ImagesDirect/VL105.png","188","test",",","image-keyboard-response","230","269943","0.0-3.0-1.113","true"
"726","ImagesTennis/TR97.5.png","190","test",",","image-keyboard-response","232","271174","0.0-3.0-1.114","false"
"823","ImagesDirect/VL107.5.png","188","test",",","image-keyboard-response","234","272501","0.0-3.0-1.115","true"
"843","ImagesTennis/TR102.5.png","190","test",".","image-keyboard-response","236","273848","0.0-3.0-1.116","true"
"572","ImagesTennis/TL110.png","188","test",",","image-keyboard-response","238","274924","0.0-3.0-1.117","true"
"577","ImagesSoccer/VR107.5.png","190","test",".","image-keyboard-response","240","276005","0.0-3.0-1.118","true"
"1320","ImagesDirect/VL100.png","188","test",".","image-keyboard-response","242","277829","0.0-3.0-1.119","false"
"494","ImagesSoccer/VL110.png","188","test",",","image-keyboard-response","244","278828","0.0-3.0-1.120","true"
"720","ImagesSoccer/VL97.5.png","188","test",".","image-keyboard-response","246","280052","0.0-3.0-1.121","false"
"1154","ImagesDirect/VR90.png","190","test",",","image-keyboard-response","248","281710","0.0-3.0-1.122","false"
"1323","ImagesTennis/TL95.png","190","test",".","image-keyboard-response","250","283537","0.0-3.0-1.123","true"
"619","ImagesSoccer/VR100.png","190","test",".","image-keyboard-response","252","284660","0.0-3.0-1.124","true"
"576","ImagesSoccer/VL105.png","188","test",",","image-keyboard-response","254","285740","0.0-3.0-1.125","true"
"433","ImagesDirect/VR110.png","190","test",".","image-keyboard-response","256","286677","0.0-3.0-1.126","true"
"498","ImagesDirect/VR105.png","190","test",".","image-keyboard-response","258","287680","0.0-3.0-1.127","true"
"954","ImagesDirect/VL92.5.png","188","test",".","image-keyboard-response","260","289138","0.0-3.0-1.128","false"
"431","ImagesTennis/TR107.5.png","190","test",".","image-keyboard-response","262","290072","0.0-3.0-1.129","true"
"1047","ImagesSoccer/VL90.png","188","test",".","image-keyboard-response","264","291624","0.0-3.0-1.130","false"
"602","ImagesDirect/VR100.png","190","test",".","image-keyboard-response","266","292730","0.0-3.0-1.131","true"
"1091","ImagesDirect/VL97.5.png","188","test",".","image-keyboard-response","268","294325","0.0-3.0-1.132","false"
"462","ImagesSoccer/VR110.png","190","test",".","image-keyboard-response","270","295292","0.0-3.0-1.133","true"
"804","ImagesSoccer/VL92.5.png","190","test",".","image-keyboard-response","272","296600","0.0-3.0-1.134","true"
"593","ImagesSoccer/VR90.png","190","test",",","image-keyboard-response","274","297696","0.0-3.0-1.135","false"
"556","ImagesTennis/TR95.png","190","test",",","image-keyboard-response","276","298756","0.0-3.0-1.136","false"
"535","ImagesSoccer/VL95.png","188","test",".","image-keyboard-response","278","299795","0.0-3.0-1.137","false"
"535","ImagesTennis/TL100.png","188","test",".","image-keyboard-response","280","300834","0.0-3.0-1.138","false"
"485","ImagesSoccer/VL100.png","188","test",".","image-keyboard-response","282","301823","0.0-3.0-1.139","false"
"390","ImagesSoccer/VR97.5.png","190","test",",","image-keyboard-response","284","302718","0.0-3.0-1.140","false"
"381","ImagesTennis/TL102.5.png","188","test",",","image-keyboard-response","286","303603","0.0-3.0-1.141","true"
"302","ImagesSoccer/VR92.5.png","190","test",",","image-keyboard-response","288","304410","0.0-3.0-1.142","false"
"559","ImagesDirect/VR102.5.png","190","test",".","image-keyboard-response","290","305473","0.0-3.0-1.143","true"
"486","ImagesSoccer/VL102.5.png","188","test",",","image-keyboard-response","292","306464","0.0-3.0-1.144","true"
"821","ImagesDirect/VL95.png","188","test",".","image-keyboard-response","294","307790","0.0-3.0-1.145","false"
"520","ImagesDirect/VL102.5.png","188","test",",","image-keyboard-response","296","308814","0.0-3.0-1.146","true"
"644","ImagesTennis/TL97.5.png","188","test",".","image-keyboard-response","298","309962","0.0-3.0-1.147","false"
"478","ImagesDirect/VR97.5.png","190","test",",","image-keyboard-response","300","310945","0.0-3.0-1.148","false"
"448","ImagesDirect/VL110.png","188","test",",","image-keyboard-response","302","311898","0.0-3.0-1.149","true"
"454","ImagesTennis/TR90.png","190","test",",","image-keyboard-response","304","312857","0.0-3.0-1.150","false"
"626","ImagesDirect/VR95.png","190","test",",","image-keyboard-response","306","313988","0.0-3.0-1.151","false"
"756","ImagesSoccer/VR102.5.png","190","test",".","image-keyboard-response","308","315249","0.0-3.0-1.152","true"
"560","ImagesTennis/TL90.png","188","test",".","image-keyboard-response","310","316314","0.0-3.0-1.153","false"
"710","ImagesDirect/VL90.png","188","test",".","image-keyboard-response","312","317528","0.0-3.0-1.154","false"
"520","ImagesSoccer/VL107.5.png","188","test",",","image-keyboard-response","314","318553","0.0-3.0-1.155","true"
"445","ImagesTennis/TR105.png","190","test",".","image-keyboard-response","316","319503","0.0-3.0-1.156","true"
"398","ImagesTennis/TL105.png","188","test",",","image-keyboard-response","318","320406","0.0-3.0-1.157","true"
"564","ImagesDirect/VR92.5.png","190","test",",","image-keyboard-response","320","321475","0.0-3.0-1.158","false"
"527","ImagesSoccer/VR95.png","190","test",",","image-keyboard-response","322","322507","0.0-3.0-1.159","false"
"624","ImagesDirect/VR107.5.png","190","test",".","image-keyboard-response","324","323636","0.0-3.0-1.160","true"
"556","ImagesSoccer/VR105.png","190","test",".","image-keyboard-response","326","324697","0.0-3.0-1.161","true"
"532","ImagesDirect/VL90.png","188","test",".","image-keyboard-response","328","325734","0.0-3.0-1.162","false"
"587","ImagesDirect/VR100.png","190","test",".","image-keyboard-response","330","326826","0.0-3.0-1.163","true"
"603","ImagesTennis/TL97.5.png","188","test",".","image-keyboard-response","332","327933","0.0-3.0-1.164","false"
"630","ImagesSoccer/VL92.5.png","188","test",".","image-keyboard-response","334","329069","0.0-3.0-1.165","false"
"580","ImagesTennis/TL110.png","188","test",",","image-keyboard-response","336","330154","0.0-3.0-1.166","true"
"605","ImagesTennis/TL105.png","188","test",",","image-keyboard-response","338","331264","0.0-3.0-1.167","true"
"641","ImagesSoccer/VL102.5.png","188","test",",","image-keyboard-response","340","332409","0.0-3.0-1.168","true"
"590","ImagesSoccer/VL100.png","188","test",".","image-keyboard-response","342","333504","0.0-3.0-1.169","false"
"775","ImagesDirect/VL92.5.png","188","test",".","image-keyboard-response","344","334785","0.0-3.0-1.170","false"
"549","ImagesTennis/TL102.5.png","188","test",",","image-keyboard-response","346","335838","0.0-3.0-1.171","true"
"752","ImagesDirect/VL100.png","188","test",".","image-keyboard-response","348","337095","0.0-3.0-1.172","false"
"531","ImagesDirect/VL110.png","188","test",",","image-keyboard-response","350","338131","0.0-3.0-1.173","true"
"493","ImagesTennis/TR90.png","190","test",",","image-keyboard-response","352","339129","0.0-3.0-1.174","false"
"605","ImagesDirect/VR110.png","190","test",".","image-keyboard-response","354","340239","0.0-3.0-1.175","true"
"1651","ImagesDirect/VR90.png","188","test",",","image-keyboard-response","356","342395","0.0-3.0-1.176","true"
"764","ImagesTennis/TL90.png","190","test",".","image-keyboard-response","358","343664","0.0-3.0-1.177","true"
"629","ImagesSoccer/VR97.5.png","190","test",",","image-keyboard-response","360","344797","0.0-3.0-1.178","false"
"640","ImagesTennis/TR107.5.png","190","test",".","image-keyboard-response","362","345942","0.0-3.0-1.179","true"
"983","ImagesTennis/TL92.5.png","190","test",".","image-keyboard-response","364","347430","0.0-3.0-1.180","true"
"624","ImagesSoccer/VL97.5.png","188","test",".","image-keyboard-response","366","348559","0.0-3.0-1.181","false"
"485","ImagesDirect/VR107.5.png","190","test",".","image-keyboard-response","368","349548","0.0-3.0-1.182","true"
"866","ImagesDirect/VR102.5.png","190","test",".","image-keyboard-response","370","350918","0.0-3.0-1.183","true"
"547","ImagesSoccer/VR105.png","190","test",".","image-keyboard-response","372","351970","0.0-3.0-1.184","true"
"688","ImagesTennis/TR100.png","190","test",".","image-keyboard-response","374","353163","0.0-3.0-1.185","true"
"595","ImagesSoccer/VR95.png","190","test",",","image-keyboard-response","376","354262","0.0-3.0-1.186","false"
"554","ImagesDirect/VR97.5.png","190","test",",","image-keyboard-response","378","355321","0.0-3.0-1.187","false"
"600","ImagesSoccer/VR90.png","190","test",",","image-keyboard-response","380","356426","0.0-3.0-1.188","false"
"557","ImagesDirect/VR92.5.png","190","test",",","image-keyboard-response","382","357487","0.0-3.0-1.189","false"
"470","ImagesSoccer/VR107.5.png","190","test",".","image-keyboard-response","384","358462","0.0-3.0-1.190","true"
"399","ImagesSoccer/VR110.png","190","test",".","image-keyboard-response","386","359365","0.0-3.0-1.191","true"
"548","ImagesDirect/VL107.5.png","188","test",",","image-keyboard-response","388","360417","0.0-3.0-1.192","true"
"899","ImagesTennis/TR95.png","188","test",",","image-keyboard-response","390","361820","0.0-3.0-1.193","true"
"531","ImagesSoccer/VR100.png","190","test",".","image-keyboard-response","392","362855","0.0-3.0-1.194","true"
"961","ImagesSoccer/VL95.png","188","test",".","image-keyboard-response","394","364320","0.0-3.0-1.195","false"
"472","ImagesSoccer/VR102.5.png","190","test",".","image-keyboard-response","396","365297","0.0-3.0-1.196","true"
"759","ImagesDirect/VL95.png","188","test",".","image-keyboard-response","398","366560","0.0-3.0-1.197","false"
"454","ImagesDirect/VL97.5.png","188","test",".","image-keyboard-response","400","367518","0.0-3.0-1.198","false"
"556","ImagesSoccer/VL105.png","188","test",",","image-keyboard-response","402","368578","0.0-3.0-1.199","true"
"700","ImagesTennis/TR105.png","190","test",".","image-keyboard-response","404","369782","0.0-3.0-1.200","true"
"479","ImagesTennis/TL100.png","188","test",".","image-keyboard-response","406","370765","0.0-3.0-1.201","false"
"374","ImagesTennis/TR97.5.png","190","test",",","image-keyboard-response","408","371643","0.0-3.0-1.202","false"
"458","ImagesTennis/TR110.png","190","test",".","image-keyboard-response","410","372605","0.0-3.0-1.203","true"
"380","ImagesTennis/TL107.5.png","188","test",",","image-keyboard-response","412","373489","0.0-3.0-1.204","true"
"618","ImagesDirect/VL105.png","188","test",",","image-keyboard-response","414","374611","0.0-3.0-1.205","true"
"379","ImagesDirect/VR105.png","190","test",".","image-keyboard-response","416","375494","0.0-3.0-1.206","true"
"375","ImagesSoccer/VL107.5.png","188","test",",","image-keyboard-response","418","376373","0.0-3.0-1.207","true"
"527","ImagesDirect/VR95.png","190","test",",","image-keyboard-response","420","377404","0.0-3.0-1.208","false"
"492","ImagesSoccer/VR92.5.png","190","test",",","image-keyboard-response","422","378400","0.0-3.0-1.209","false"
"619","ImagesTennis/TR102.5.png","190","test",".","image-keyboard-response","424","379523","0.0-3.0-1.210","true"
"804","ImagesSoccer/VL90.png","190","test",".","image-keyboard-response","426","380831","0.0-3.0-1.211","true"
"499","ImagesTennis/TL95.png","188","test",".","image-keyboard-response","428","381834","0.0-3.0-1.212","false"
"504","ImagesSoccer/VL110.png","188","test",",","image-keyboard-response","430","382842","0.0-3.0-1.213","true"
"353","ImagesTennis/TR92.5.png","190","test",",","image-keyboard-response","432","383699","0.0-3.0-1.214","false"
"581","ImagesDirect/VL102.5.png","188","test",",","image-keyboard-response","434","384784","0.0-3.0-1.215","true"
"901","ImagesTennis/TL97.5.png","190","test",".","image-keyboard-response","436","386189","0.0-3.0-1.216","true"
"630","ImagesSoccer/VL100.png","188","test",".","image-keyboard-response","438","387323","0.0-3.0-1.217","false"
"692","ImagesTennis/TR92.5.png","188","test",",","image-keyboard-response","440","388519","0.0-3.0-1.218","true"
"576","ImagesDirect/VR110.png","190","test",".","image-keyboard-response","442","389599","0.0-3.0-1.219","true"
"774","ImagesTennis/TL95.png","190","test",".","image-keyboard-response","444","390877","0.0-3.0-1.220","true"
"1089","ImagesTennis/TR100.png","190","test",".","image-keyboard-response","446","392471","0.0-3.0-1.221","true"
"874","ImagesDirect/VL105.png","188","test",",","image-keyboard-response","448","393850","0.0-3.0-1.222","true"
"369","ImagesSoccer/VR110.png","190","test",".","image-keyboard-response","450","394722","0.0-3.0-1.223","true"
"721","ImagesSoccer/VR102.5.png","190","test",".","image-keyboard-response","452","395948","0.0-3.0-1.224","true"
"831","ImagesDirect/VL92.5.png","190","test",".","image-keyboard-response","454","397282","0.0-3.0-1.225","true"
"450","ImagesTennis/TL102.5.png","188","test",",","image-keyboard-response","456","398237","0.0-3.0-1.226","true"
"411","ImagesTennis/TR102.5.png","190","test",".","image-keyboard-response","458","399153","0.0-3.0-1.227","true"
"592","ImagesDirect/VL97.5.png","188","test",".","image-keyboard-response","460","400249","0.0-3.0-1.228","false"
"519","ImagesDirect/VL102.5.png","188","test",",","image-keyboard-response","462","401273","0.0-3.0-1.229","true"
"372","ImagesSoccer/VR100.png","190","test",".","image-keyboard-response","464","402150","0.0-3.0-1.230","true"
"388","ImagesTennis/TL110.png","188","test",",","image-keyboard-response","466","403043","0.0-3.0-1.231","true"
"689","ImagesTennis/TR90.png","188","test",",","image-keyboard-response","468","404237","0.0-3.0-1.232","true"
"452","ImagesTennis/TL107.5.png","188","test",",","image-keyboard-response","470","405194","0.0-3.0-1.233","true"
"451","ImagesSoccer/VR107.5.png","190","test",".","image-keyboard-response","472","406150","0.0-3.0-1.234","true"
"439","ImagesSoccer/VL102.5.png","188","test",",","image-keyboard-response","474","407094","0.0-3.0-1.235","true"
"549","ImagesTennis/TL90.png","188","test",".","image-keyboard-response","476","408148","0.0-3.0-1.236","false"
"516","ImagesSoccer/VL95.png","188","test",".","image-keyboard-response","478","409169","0.0-3.0-1.237","false"
"496","ImagesDirect/VR102.5.png","190","test",".","image-keyboard-response","480","410170","0.0-3.0-1.238","true"
"608","ImagesDirect/VR95.png","190","test",",","image-keyboard-response","482","411283","0.0-3.0-1.239","false"
"695","ImagesDirect/VR100.png","190","test",".","image-keyboard-response","484","412483","0.0-3.0-1.240","true"
"825","ImagesTennis/TR97.5.png","190","test",",","image-keyboard-response","486","413813","0.0-3.0-1.241","false"
"556","ImagesTennis/TR110.png","190","test",".","image-keyboard-response","488","414874","0.0-3.0-1.242","true"
"504","ImagesDirect/VR105.png","190","test",".","image-keyboard-response","490","415882","0.0-3.0-1.243","true"
"660","ImagesTennis/TR107.5.png","188","test",".","image-keyboard-response","492","417047","0.0-3.0-1.244","false"
"624","ImagesDirect/VR90.png","190","test",",","image-keyboard-response","494","418176","0.0-3.0-1.245","false"
"489","ImagesTennis/TR105.png","190","test",".","image-keyboard-response","496","419170","0.0-3.0-1.246","true"
"454","ImagesSoccer/VL110.png","188","test",",","image-keyboard-response","498","420130","0.0-3.0-1.247","true"
"389","ImagesSoccer/VR105.png","190","test",".","image-keyboard-response","500","421023","0.0-3.0-1.248","true"
"672","ImagesDirect/VL90.png","188","test",".","image-keyboard-response","502","422200","0.0-3.0-1.249","false"
"397","ImagesDirect/VR107.5.png","190","test",".","image-keyboard-response","504","423101","0.0-3.0-1.250","true"
"423","ImagesSoccer/VL92.5.png","188","test",".","image-keyboard-response","506","424030","0.0-3.0-1.251","false"
"490","ImagesTennis/TL100.png","188","test",".","image-keyboard-response","508","425024","0.0-3.0-1.252","false"
"432","ImagesTennis/TL92.5.png","188","test",".","image-keyboard-response","510","425961","0.0-3.0-1.253","false"
"622","ImagesDirect/VL100.png","190","test",".","image-keyboard-response","512","427088","0.0-3.0-1.254","true"
"441","ImagesSoccer/VR95.png","190","test",",","image-keyboard-response","514","428034","0.0-3.0-1.255","false"
"404","ImagesSoccer/VL105.png","188","test",",","image-keyboard-response","516","428943","0.0-3.0-1.256","true"
"698","ImagesTennis/TR95.png","188","test",",","image-keyboard-response","518","430146","0.0-3.0-1.257","true"
"642","ImagesSoccer/VR92.5.png","190","test",",","image-keyboard-response","520","431293","0.0-3.0-1.258","false"
"688","ImagesDirect/VR97.5.png","190","test",",","image-keyboard-response","522","432486","0.0-3.0-1.259","false"
"485","ImagesSoccer/VL107.5.png","188","test",",","image-keyboard-response","524","433476","0.0-3.0-1.260","true"
"666","ImagesDirect/VL107.5.png","188","test",",","image-keyboard-response","526","434646","0.0-3.0-1.261","true"
"541","ImagesTennis/TL105.png","188","test",",","image-keyboard-response","528","435692","0.0-3.0-1.262","true"
"627","ImagesDirect/VL95.png","190","test",".","image-keyboard-response","530","436823","0.0-3.0-1.263","true"
"507","ImagesSoccer/VR90.png","190","test",",","image-keyboard-response","532","437834","0.0-3.0-1.264","false"
"1073","ImagesDirect/VR92.5.png","190","test",",","image-keyboard-response","534","439411","0.0-3.0-1.265","false"
"454","ImagesDirect/VL110.png","188","test",",","image-keyboard-response","536","440369","0.0-3.0-1.266","true"
"898","ImagesSoccer/VL97.5.png","188","test",".","image-keyboard-response","538","441771","0.0-3.0-1.267","false"
"406","ImagesSoccer/VR97.5.png","190","test",",","image-keyboard-response","540","442681","0.0-3.0-1.268","false"
"775","ImagesSoccer/VL90.png","190","test",".","image-keyboard-response","542","443961","0.0-3.0-1.269","true"
"3382","ImagesCoins/10L90.png","190","test",".","image-keyboard-response","544","447849","0.0-4.0-1.0","true"
"1034","ImagesCoins/10R90.png","188","test",",","image-keyboard-response","546","449387","0.0-4.0-1.1","true"
"1028","ImagesCoins/10R107.5.png","190","test",".","image-keyboard-response","548","450920","0.0-4.0-1.2","true"
"737","ImagesCoins/10L105.png","188","test",",","image-keyboard-response","550","452162","0.0-4.0-1.3","true"
"1552","ImagesCoins/10R102.5.png","190","test",".","image-keyboard-response","552","454219","0.0-4.0-1.4","true"
"1814","ImagesCoins/10R95.png","188","test",",","image-keyboard-response","554","456538","0.0-4.0-1.5","true"
"830","ImagesCoins/10L107.5.png","188","test",",","image-keyboard-response","556","457873","0.0-4.0-1.6","true"
"1171","ImagesCoins/10L97.5.png","190","test",".","image-keyboard-response","558","459549","0.0-4.0-1.7","true"
"839","ImagesCoins/10L102.5.png","190","test",",","image-keyboard-response","560","460893","0.0-4.0-1.8","false"
"724","ImagesCoins/10L92.5.png","190","test",".","image-keyboard-response","562","462122","0.0-4.0-1.9","true"
"559","ImagesCoins/10R92.5.png","188","test",",","image-keyboard-response","564","463185","0.0-4.0-1.10","true"
"651","ImagesCoins/10L100.png","190","test",".","image-keyboard-response","566","464341","0.0-4.0-1.11","true"
"682","ImagesCoins/10R97.5.png","188","test",",","image-keyboard-response","568","465528","0.0-4.0-1.12","true"
"908","ImagesCoins/10R105.png","190","test",".","image-keyboard-response","570","466940","0.0-4.0-1.13","true"
"756","ImagesCoins/10R110.png","190","test",".","image-keyboard-response","572","468201","0.0-4.0-1.14","true"
"847","ImagesCoins/10R100.png","190","test",".","image-keyboard-response","574","469551","0.0-4.0-1.15","true"
"705","ImagesCoins/10L95.png","190","test",".","image-keyboard-response","576","470760","0.0-4.0-1.16","true"
"582","ImagesCoins/10L110.png","188","test",",","image-keyboard-response","578","471846","0.0-4.0-1.17","true"
"573","ImagesCoins/10R110.png","190","test",".","image-keyboard-response","580","472923","0.0-4.0-1.18","true"
"392","ImagesCoins/10L107.5.png","188","test",",","image-keyboard-response","582","473819","0.0-4.0-1.19","true"
"426","ImagesCoins/10R105.png","190","test",".","image-keyboard-response","584","474750","0.0-4.0-1.20","true"
"470","ImagesCoins/10L110.png","188","test",",","image-keyboard-response","586","475724","0.0-4.0-1.21","true"
"483","ImagesCoins/10L97.5.png","188","test",".","image-keyboard-response","588","476711","0.0-4.0-1.22","false"
"550","ImagesCoins/10L102.5.png","188","test",",","image-keyboard-response","590","477765","0.0-4.0-1.23","true"
"845","ImagesCoins/10L95.png","190","test",".","image-keyboard-response","592","479115","0.0-4.0-1.24","true"
"580","ImagesCoins/10R97.5.png","188","test",",","image-keyboard-response","594","480198","0.0-4.0-1.25","true"
"694","ImagesCoins/10R100.png","188","test",".","image-keyboard-response","596","481396","0.0-4.0-1.26","false"
"959","ImagesCoins/10R95.png","188","test",",","image-keyboard-response","598","482859","0.0-4.0-1.27","true"
"585","ImagesCoins/10L92.5.png","190","test",".","image-keyboard-response","600","483948","0.0-4.0-1.28","true"
"962","ImagesCoins/10L105.png","188","test",",","image-keyboard-response","602","485414","0.0-4.0-1.29","true"
"2581","ImagesCoins/10L100.png","190","test",".","image-keyboard-response","604","488500","0.0-4.0-1.30","true"
"610","ImagesCoins/10R90.png","188","test",",","image-keyboard-response","606","489615","0.0-4.0-1.31","true"
"564","ImagesCoins/10L90.png","190","test",".","image-keyboard-response","608","490684","0.0-4.0-1.32","true"
"621","ImagesCoins/10R107.5.png","188","test",".","image-keyboard-response","610","491810","0.0-4.0-1.33","false"
"307","ImagesCoins/10R92.5.png","188","test",",","image-keyboard-response","612","492622","0.0-4.0-1.34","true"
"627","ImagesCoins/10R102.5.png","188","test",".","image-keyboard-response","614","493754","0.0-4.0-1.35","false"
"825","ImagesCoins/10R105.png","188","test",".","image-keyboard-response","616","495084","0.0-4.0-1.36","false"
"916","ImagesCoins/10L110.png","188","test",",","image-keyboard-response","618","496505","0.0-4.0-1.37","true"
"660","ImagesCoins/10R107.5.png","188","test",".","image-keyboard-response","620","497670","0.0-4.0-1.38","false"
"544","ImagesCoins/10R95.png","188","test",",","image-keyboard-response","622","498718","0.0-4.0-1.39","true"
"542","ImagesCoins/10R90.png","188","test",",","image-keyboard-response","624","499765","0.0-4.0-1.40","true"
"406","ImagesCoins/10L97.5.png","188","test",".","image-keyboard-response","626","500676","0.0-4.0-1.41","false"
"519","ImagesCoins/10R97.5.png","188","test",",","image-keyboard-response","628","501701","0.0-4.0-1.42","true"
"446","ImagesCoins/10R102.5.png","188","test",".","image-keyboard-response","630","502651","0.0-4.0-1.43","false"
"482","ImagesCoins/10L92.5.png","190","test",".","image-keyboard-response","632","503636","0.0-4.0-1.44","true"
"401","ImagesCoins/10R92.5.png","188","test",",","image-keyboard-response","634","504542","0.0-4.0-1.45","true"
"481","ImagesCoins/10L107.5.png","190","test",",","image-keyboard-response","636","505528","0.0-4.0-1.46","false"
"559","ImagesCoins/10L100.png","190","test",".","image-keyboard-response","638","506593","0.0-4.0-1.47","true"
"683","ImagesCoins/10R100.png","188","test",".","image-keyboard-response","640","507781","0.0-4.0-1.48","false"
"650","ImagesCoins/10L102.5.png","190","test",",","image-keyboard-response","642","508936","0.0-4.0-1.49","false"
"517","ImagesCoins/10L90.png","190","test",".","image-keyboard-response","644","509957","0.0-4.0-1.50","true"
"687","ImagesCoins/10L105.png","188","test",",","image-keyboard-response","646","511149","0.0-4.0-1.51","true"
"678","ImagesCoins/10L95.png","190","test",".","image-keyboard-response","648","512332","0.0-4.0-1.52","true"
"693","ImagesCoins/10R110.png","188","test",".","image-keyboard-response","650","513529","0.0-4.0-1.53","false"
"515","ImagesCoins/10R90.png","188","test",",","image-keyboard-response","652","514549","0.0-4.0-1.54","true"
"535","ImagesCoins/10R95.png","188","test",",","image-keyboard-response","654","515589","0.0-4.0-1.55","true"
"544","ImagesCoins/10R105.png","188","test",".","image-keyboard-response","656","516638","0.0-4.0-1.56","false"
"725","ImagesCoins/10L107.5.png","188","test",",","image-keyboard-response","658","517868","0.0-4.0-1.57","true"
"1182","ImagesCoins/10R110.png","190","test",".","image-keyboard-response","660","519554","0.0-4.0-1.58","true"
"2815","ImagesCoins/10L90.png","190","test",".","image-keyboard-response","662","522873","0.0-4.0-1.59","true"
"749","ImagesCoins/10L110.png","188","test",",","image-keyboard-response","664","524127","0.0-4.0-1.60","true"
"507","ImagesCoins/10L95.png","188","test",".","image-keyboard-response","666","525139","0.0-4.0-1.61","false"
"418","ImagesCoins/10R97.5.png","188","test",",","image-keyboard-response","668","526062","0.0-4.0-1.62","true"
"368","ImagesCoins/10R92.5.png","188","test",",","image-keyboard-response","670","526934","0.0-4.0-1.63","true"
"683","ImagesCoins/10L105.png","188","test",",","image-keyboard-response","672","528122","0.0-4.0-1.64","true"
"381","ImagesCoins/10L100.png","188","test",".","image-keyboard-response","674","529008","0.0-4.0-1.65","false"
"677","ImagesCoins/10L92.5.png","190","test",".","image-keyboard-response","676","530190","0.0-4.0-1.66","true"
"55","ImagesCoins/10L102.5.png","188","test",",","image-keyboard-response","678","530750","0.0-4.0-1.67","true"
"225","ImagesCoins/10L97.5.png","190","test",".","image-keyboard-response","680","531479","0.0-4.0-1.68","true"
"464","ImagesCoins/10R102.5.png","188","test",".","image-keyboard-response","682","532448","0.0-4.0-1.69","false"
"603","ImagesCoins/10R100.png","188","test",".","image-keyboard-response","684","533556","0.0-4.0-1.70","false"
"843","ImagesCoins/10R107.5.png","190","test",".","image-keyboard-response","686","534902","0.0-4.0-1.71","true"
"572","ImagesCoins/10L97.5.png","188","test",".","image-keyboard-response","688","535980","0.0-4.0-1.72","false"
"532","ImagesCoins/10L110.png","188","test",",","image-keyboard-response","690","537017","0.0-4.0-1.73","true"
"571","ImagesCoins/10R100.png","188","test",".","image-keyboard-response","692","538093","0.0-4.0-1.74","false"
"675","ImagesCoins/10R110.png","188","test",".","image-keyboard-response","694","539274","0.0-4.0-1.75","false"
"775","ImagesCoins/10R107.5.png","190","test",".","image-keyboard-response","696","540554","0.0-4.0-1.76","true"
"604","ImagesCoins/10L105.png","188","test",",","image-keyboard-response","698","541663","0.0-4.0-1.77","true"
"700","ImagesCoins/10R92.5.png","188","test",",","image-keyboard-response","700","542868","0.0-4.0-1.78","true"
"818","ImagesCoins/10R102.5.png","188","test",".","image-keyboard-response","702","544190","0.0-4.0-1.79","false"
"639","ImagesCoins/10L102.5.png","188","test",",","image-keyboard-response","704","545334","0.0-4.0-1.80","true"
"982","ImagesCoins/10R105.png","190","test",".","image-keyboard-response","706","546821","0.0-4.0-1.81","true"
"896","ImagesCoins/10R95.png","188","test",",","image-keyboard-response","708","548221","0.0-4.0-1.82","true"
"488","ImagesCoins/10L100.png","188","test",".","image-keyboard-response","710","549214","0.0-4.0-1.83","false"
"512","ImagesCoins/10L107.5.png","188","test",",","image-keyboard-response","712","550230","0.0-4.0-1.84","true"
"1012","ImagesCoins/10R97.5.png","190","test",",","image-keyboard-response","714","551745","0.0-4.0-1.85","false"
"898","ImagesCoins/10L95.png","190","test",".","image-keyboard-response","716","553148","0.0-4.0-1.86","true"
"761","ImagesCoins/10L90.png","190","test",".","image-keyboard-response","718","554413","0.0-4.0-1.87","true"
"725","ImagesCoins/10R90.png","188","test",",","image-keyboard-response","720","555642","0.0-4.0-1.88","true"
"1042","ImagesCoins/10L92.5.png","190","test",".","image-keyboard-response","722","557189","0.0-4.0-1.89","true"
