"rt","stimulus","key_press","test_part","correct_response","trial_type","trial_index","time_elapsed","internal_node_id","correct"
"1348","ImagesCoins/10R110.png","190","test",".","image-keyboard-response","4","45843","0.0-3.0-1.0","true"
"988","ImagesCoins/10R92.5.png","188","test",",","image-keyboard-response","6","47333","0.0-3.0-1.1","true"
"1364","ImagesCoins/10L95.png","190","test",".","image-keyboard-response","8","49199","0.0-3.0-1.2","true"
"1507","ImagesCoins/10L100.png","188","test",".","image-keyboard-response","10","51208","0.0-3.0-1.3","false"
"1469","ImagesCoins/10L105.png","188","test",",","image-keyboard-response","12","53178","0.0-3.0-1.4","true"
"1569","ImagesCoins/10L92.5.png","190","test",".","image-keyboard-response","14","55249","0.0-3.0-1.5","true"
"1680","ImagesCoins/10R105.png","190","test",".","image-keyboard-response","16","57430","0.0-3.0-1.6","true"
"1473","ImagesCoins/10L97.5.png","188","test",".","image-keyboard-response","18","59405","0.0-3.0-1.7","false"
"1096","ImagesCoins/10R107.5.png","190","test",".","image-keyboard-response","20","61003","0.0-3.0-1.8","true"
"1029","ImagesCoins/10L110.png","188","test",",","image-keyboard-response","22","62533","0.0-3.0-1.9","true"
"1970","ImagesCoins/10R97.5.png","190","test",",","image-keyboard-response","24","65004","0.0-3.0-1.10","false"
"3402","ImagesCoins/10R95.png","190","test",",","image-keyboard-response","26","68908","0.0-3.0-1.11","false"
"1245","ImagesCoins/10L102.5.png","188","test",",","image-keyboard-response","28","70654","0.0-3.0-1.12","true"
"1711","ImagesCoins/10R100.png","190","test",".","image-keyboard-response","30","72869","0.0-3.0-1.13","true"
"1166","ImagesCoins/10L107.5.png","188","test",",","image-keyboard-response","32","74535","0.0-3.0-1.14","true"
"1114","ImagesCoins/10R90.png","188","test",",","image-keyboard-response","34","76151","0.0-3.0-1.15","true"
"1975","ImagesCoins/10R102.5.png","190","test",".","image-keyboard-response","36","78627","0.0-3.0-1.16","true"
"1004","ImagesCoins/10L90.png","190","test",".","image-keyboard-response","38","80134","0.0-3.0-1.17","true"
"747","ImagesCoins/10L97.5.png","188","test",".","image-keyboard-response","40","81385","0.0-3.0-1.18","false"
"1382","ImagesCoins/10R102.5.png","190","test",".","image-keyboard-response","42","83269","0.0-3.0-1.19","true"
"936","ImagesCoins/10R107.5.png","190","test",".","image-keyboard-response","44","84707","0.0-3.0-1.20","true"
"891","ImagesCoins/10R92.5.png","188","test",",","image-keyboard-response","46","86100","0.0-3.0-1.21","true"
"685","ImagesCoins/10R110.png","190","test",".","image-keyboard-response","48","87287","0.0-3.0-1.22","true"
"1609","ImagesCoins/10L95.png","190","test",".","image-keyboard-response","50","89397","0.0-3.0-1.23","true"
"686","ImagesCoins/10L105.png","188","test",",","image-keyboard-response","52","90585","0.0-3.0-1.24","true"
"1284","ImagesCoins/10R97.5.png","188","test",",","image-keyboard-response","54","92372","0.0-3.0-1.25","true"
"663","ImagesCoins/10L110.png","188","test",",","image-keyboard-response","56","93536","0.0-3.0-1.26","true"
"582","ImagesCoins/10L107.5.png","188","test",",","image-keyboard-response","58","94620","0.0-3.0-1.27","true"
"1072","ImagesCoins/10R90.png","188","test",",","image-keyboard-response","60","96195","0.0-3.0-1.28","true"
"703","ImagesCoins/10R105.png","190","test",".","image-keyboard-response","62","97401","0.0-3.0-1.29","true"
"633","ImagesCoins/10L102.5.png","188","test",",","image-keyboard-response","64","98536","0.0-3.0-1.30","true"
"669","ImagesCoins/10R100.png","190","test",".","image-keyboard-response","66","99707","0.0-3.0-1.31","true"
"1050","ImagesCoins/10L100.png","188","test",".","image-keyboard-response","68","101258","0.0-3.0-1.32","false"
"826","ImagesCoins/10L90.png","190","test",".","image-keyboard-response","70","102588","0.0-3.0-1.33","true"
"1365","ImagesCoins/10R95.png","188","test",",","image-keyboard-response","72","104456","0.0-3.0-1.34","true"
"1097","ImagesCoins/10L92.5.png","190","test",".","image-keyboard-response","74","106053","0.0-3.0-1.35","true"
"1126","ImagesCoins/10L100.png","190","test",".","image-keyboard-response","76","107681","0.0-3.0-1.36","true"
"1667","ImagesCoins/10L97.5.png","190","test",".","image-keyboard-response","78","109850","0.0-3.0-1.37","true"
"565","ImagesCoins/10L110.png","188","test",",","image-keyboard-response","80","110916","0.0-3.0-1.38","true"
"714","ImagesCoins/10L92.5.png","190","test",".","image-keyboard-response","82","112133","0.0-3.0-1.39","true"
"765","ImagesCoins/10R107.5.png","190","test",".","image-keyboard-response","84","113399","0.0-3.0-1.40","true"
"1718","ImagesCoins/10L95.png","190","test",".","image-keyboard-response","86","115619","0.0-3.0-1.41","true"
"719","ImagesCoins/10R95.png","188","test",",","image-keyboard-response","88","116841","0.0-3.0-1.42","true"
"1062","ImagesCoins/10L90.png","190","test",".","image-keyboard-response","90","118406","0.0-3.0-1.43","true"
"1337","ImagesCoins/10R100.png","190","test",".","image-keyboard-response","92","120244","0.0-3.0-1.44","true"
"1799","ImagesCoins/10R92.5.png","188","test",",","image-keyboard-response","94","122544","0.0-3.0-1.45","true"
"652","ImagesCoins/10R105.png","190","test",".","image-keyboard-response","96","123697","0.0-3.0-1.46","true"
"645","ImagesCoins/10R90.png","188","test",",","image-keyboard-response","98","124844","0.0-3.0-1.47","true"
"702","ImagesCoins/10L107.5.png","188","test",",","image-keyboard-response","100","126048","0.0-3.0-1.48","true"
"698","ImagesCoins/10R102.5.png","190","test",".","image-keyboard-response","102","127247","0.0-3.0-1.49","true"
"560","ImagesCoins/10L102.5.png","188","test",",","image-keyboard-response","104","128309","0.0-3.0-1.50","true"
"605","ImagesCoins/10L105.png","188","test",",","image-keyboard-response","106","129416","0.0-3.0-1.51","true"
"543","ImagesCoins/10R110.png","190","test",".","image-keyboard-response","108","130461","0.0-3.0-1.52","true"
"936","ImagesCoins/10R97.5.png","190","test",",","image-keyboard-response","110","131899","0.0-3.0-1.53","false"
"1582","ImagesCoins/10L95.png","190","test",".","image-keyboard-response","112","133982","0.0-3.0-1.54","true"
"725","ImagesCoins/10L92.5.png","190","test",".","image-keyboard-response","114","135209","0.0-3.0-1.55","true"
"737","ImagesCoins/10R92.5.png","188","test",",","image-keyboard-response","116","136448","0.0-3.0-1.56","true"
"725","ImagesCoins/10L110.png","188","test",",","image-keyboard-response","118","137675","0.0-3.0-1.57","true"
"1467","ImagesCoins/10R90.png","188","test",",","image-keyboard-response","120","139644","0.0-3.0-1.58","true"
"1444","ImagesCoins/10R95.png","188","test",",","image-keyboard-response","122","141590","0.0-3.0-1.59","true"
"748","ImagesCoins/10L102.5.png","188","test",",","image-keyboard-response","124","142840","0.0-3.0-1.60","true"
"634","ImagesCoins/10R102.5.png","190","test",".","image-keyboard-response","126","143976","0.0-3.0-1.61","true"
"737","ImagesCoins/10R110.png","190","test",".","image-keyboard-response","128","145215","0.0-3.0-1.62","true"
"576","ImagesCoins/10R105.png","190","test",".","image-keyboard-response","130","146293","0.0-3.0-1.63","true"
"2153","ImagesCoins/10L97.5.png","188","test",".","image-keyboard-response","132","148947","0.0-3.0-1.64","false"
"1349","ImagesCoins/10R97.5.png","190","test",",","image-keyboard-response","134","150797","0.0-3.0-1.65","false"
"960","ImagesCoins/10L90.png","190","test",".","image-keyboard-response","136","152258","0.0-3.0-1.66","true"
"805","ImagesCoins/10L105.png","188","test",",","image-keyboard-response","138","153565","0.0-3.0-1.67","true"
"1016","ImagesCoins/10L100.png","188","test",".","image-keyboard-response","140","155083","0.0-3.0-1.68","false"
"657","ImagesCoins/10R107.5.png","190","test",".","image-keyboard-response","142","156242","0.0-3.0-1.69","true"
"566","ImagesCoins/10L107.5.png","188","test",",","image-keyboard-response","144","157309","0.0-3.0-1.70","true"
"708","ImagesCoins/10R100.png","190","test",".","image-keyboard-response","146","158519","0.0-3.0-1.71","true"
"555","ImagesCoins/10R107.5.png","190","test",".","image-keyboard-response","148","159575","0.0-3.0-1.72","true"
"577","ImagesCoins/10L110.png","188","test",",","image-keyboard-response","150","160654","0.0-3.0-1.73","true"
"1866","ImagesCoins/10R95.png","188","test",",","image-keyboard-response","152","163022","0.0-3.0-1.74","true"
"1245","ImagesCoins/10L97.5.png","190","test",".","image-keyboard-response","154","164769","0.0-3.0-1.75","true"
"742","ImagesCoins/10L107.5.png","188","test",",","image-keyboard-response","156","166013","0.0-3.0-1.76","true"
"1633","ImagesCoins/10R92.5.png","188","test",",","image-keyboard-response","158","168147","0.0-3.0-1.77","true"
"1005","ImagesCoins/10R105.png","190","test",".","image-keyboard-response","160","169654","0.0-3.0-1.78","true"
"1189","ImagesCoins/10R90.png","188","test",",","image-keyboard-response","162","171344","0.0-3.0-1.79","true"
"1011","ImagesCoins/10R102.5.png","190","test",".","image-keyboard-response","164","172856","0.0-3.0-1.80","true"
"936","ImagesCoins/10L105.png","188","test",",","image-keyboard-response","166","174294","0.0-3.0-1.81","true"
"617","ImagesCoins/10R110.png","190","test",".","image-keyboard-response","168","175413","0.0-3.0-1.82","true"
"1176","ImagesCoins/10R100.png","190","test",".","image-keyboard-response","170","177091","0.0-3.0-1.83","true"
"1228","ImagesCoins/10L95.png","190","test",".","image-keyboard-response","172","178820","0.0-3.0-1.84","true"
"617","ImagesCoins/10L102.5.png","188","test",",","image-keyboard-response","174","179939","0.0-3.0-1.85","true"
"1216","ImagesCoins/10L90.png","190","test",".","image-keyboard-response","176","181657","0.0-3.0-1.86","true"
"1964","ImagesCoins/10L100.png","190","test",".","image-keyboard-response","178","184123","0.0-3.0-1.87","true"
"1730","ImagesCoins/10L92.5.png","190","test",".","image-keyboard-response","180","186354","0.0-3.0-1.88","true"
"988","ImagesCoins/10R97.5.png","190","test",",","image-keyboard-response","182","187844","0.0-3.0-1.89","false"
"1724","ImagesTennis/TR92.5.png","188","test",",","image-keyboard-response","184","190070","0.0-4.0-1.0","true"
"1935","ImagesSoccer/VR92.5.png","188","test",",","image-keyboard-response","186","192507","0.0-4.0-1.1","true"
"1981","ImagesDirect/VL92.5.png","190","test",".","image-keyboard-response","188","194990","0.0-4.0-1.2","true"
"1958","ImagesTennis/TL97.5.png","190","test",".","image-keyboard-response","190","197450","0.0-4.0-1.3","true"
"1570","ImagesSoccer/VL102.5.png","188","test",",","image-keyboard-response","192","199522","0.0-4.0-1.4","true"
"1011","ImagesDirect/VR110.png","190","test",".","image-keyboard-response","194","201034","0.0-4.0-1.5","true"
"3158","ImagesDirect/VL100.png","188","test",".","image-keyboard-response","196","204693","0.0-4.0-1.6","false"
"1085","ImagesSoccer/VR105.png","190","test",".","image-keyboard-response","198","206279","0.0-4.0-1.7","true"
"1075","ImagesTennis/TL110.png","188","test",",","image-keyboard-response","200","207855","0.0-4.0-1.8","true"
"1798","ImagesDirect/VL90.png","190","test",".","image-keyboard-response","202","210155","0.0-4.0-1.9","true"
"2140","ImagesDirect/VR107.5.png","190","test",".","image-keyboard-response","204","212797","0.0-4.0-1.10","true"
"1805","ImagesDirect/VR102.5.png","190","test",".","image-keyboard-response","206","215103","0.0-4.0-1.11","true"
"1233","ImagesDirect/VR92.5.png","188","test",",","image-keyboard-response","208","216838","0.0-4.0-1.12","true"
"1410","ImagesTennis/TL90.png","190","test",".","image-keyboard-response","210","218750","0.0-4.0-1.13","true"
"1405","ImagesSoccer/VL105.png","188","test",",","image-keyboard-response","212","220657","0.0-4.0-1.14","true"
"1439","ImagesSoccer/VL97.5.png","188","test",".","image-keyboard-response","214","222597","0.0-4.0-1.15","false"
"1319","ImagesTennis/TR95.png","188","test",",","image-keyboard-response","216","224418","0.0-4.0-1.16","true"
"1826","ImagesTennis/TR107.5.png","190","test",".","image-keyboard-response","218","226746","0.0-4.0-1.17","true"
"1046","ImagesSoccer/VL110.png","188","test",",","image-keyboard-response","220","228293","0.0-4.0-1.18","true"
"1530","ImagesSoccer/VR95.png","188","test",",","image-keyboard-response","222","230325","0.0-4.0-1.19","true"
"1696","ImagesTennis/TL100.png","190","test",".","image-keyboard-response","224","232523","0.0-4.0-1.20","true"
"1108","ImagesDirect/VL107.5.png","188","test",",","image-keyboard-response","226","234132","0.0-4.0-1.21","true"
"1108","ImagesDirect/VL102.5.png","188","test",",","image-keyboard-response","228","235742","0.0-4.0-1.22","true"
"2329","ImagesTennis/TL95.png","190","test",".","image-keyboard-response","230","238573","0.0-4.0-1.23","true"
"1775","ImagesDirect/VL105.png","188","test",",","image-keyboard-response","232","240849","0.0-4.0-1.24","true"
"3277","ImagesTennis/TL102.5.png","188","test",",","image-keyboard-response","234","244628","0.0-4.0-1.25","true"
"2552","ImagesTennis/TR97.5.png","188","test",",","image-keyboard-response","236","247681","0.0-4.0-1.26","true"
"4224","ImagesDirect/VR100.png","190","test",".","image-keyboard-response","238","252407","0.0-4.0-1.27","true"
"1297","ImagesSoccer/VR107.5.png","190","test",".","image-keyboard-response","240","254205","0.0-4.0-1.28","true"
"1102","ImagesTennis/TR90.png","188","test",",","image-keyboard-response","242","255809","0.0-4.0-1.29","true"
"2061","ImagesTennis/TR102.5.png","190","test",".","image-keyboard-response","244","258372","0.0-4.0-1.30","true"
"1668","ImagesTennis/TR105.png","190","test",".","image-keyboard-response","246","260541","0.0-4.0-1.31","true"
"1062","ImagesTennis/TL105.png","188","test",",","image-keyboard-response","248","262105","0.0-4.0-1.32","true"
"1006","ImagesSoccer/VL90.png","190","test",".","image-keyboard-response","250","263612","0.0-4.0-1.33","true"
"850","ImagesDirect/VR90.png","188","test",",","image-keyboard-response","252","264964","0.0-4.0-1.34","true"
"1273","ImagesSoccer/VR97.5.png","188","test",",","image-keyboard-response","254","266739","0.0-4.0-1.35","true"
"1136","ImagesTennis/TR110.png","190","test",".","image-keyboard-response","256","268377","0.0-4.0-1.36","true"
"1902","ImagesDirect/VL97.5.png","190","test",".","image-keyboard-response","258","270780","0.0-4.0-1.37","true"
"1098","ImagesSoccer/VL92.5.png","190","test",".","image-keyboard-response","260","272379","0.0-4.0-1.38","true"
"1023","ImagesSoccer/VR110.png","190","test",".","image-keyboard-response","262","273903","0.0-4.0-1.39","true"
"1267","ImagesTennis/TR100.png","188","test",".","image-keyboard-response","264","275672","0.0-4.0-1.40","false"
"1393","ImagesSoccer/VR90.png","188","test",",","image-keyboard-response","266","277567","0.0-4.0-1.41","true"
"880","ImagesSoccer/VR100.png","188","test",".","image-keyboard-response","268","278948","0.0-4.0-1.42","false"
"714","ImagesDirect/VL110.png","188","test",",","image-keyboard-response","270","280164","0.0-4.0-1.43","true"
"817","ImagesSoccer/VL107.5.png","188","test",",","image-keyboard-response","272","281483","0.0-4.0-1.44","true"
"1473","ImagesSoccer/VL100.png","188","test",".","image-keyboard-response","274","283458","0.0-4.0-1.45","false"
"1746","ImagesTennis/TL92.5.png","190","test",".","image-keyboard-response","276","285706","0.0-4.0-1.46","true"
"1650","ImagesSoccer/VR102.5.png","188","test",".","image-keyboard-response","278","287858","0.0-4.0-1.47","false"
"1771","ImagesDirect/VR97.5.png","188","test",",","image-keyboard-response","280","290130","0.0-4.0-1.48","true"
"2404","ImagesSoccer/VL95.png","190","test",".","image-keyboard-response","282","293036","0.0-4.0-1.49","true"
"3380","ImagesDirect/VR95.png","190","test",",","image-keyboard-response","284","296917","0.0-4.0-1.50","false"
"2170","ImagesDirect/VL95.png","190","test",".","image-keyboard-response","286","299588","0.0-4.0-1.51","true"
"1182","ImagesTennis/TL107.5.png","188","test",",","image-keyboard-response","288","301273","0.0-4.0-1.52","true"
"1718","ImagesDirect/VR105.png","190","test",".","image-keyboard-response","290","303493","0.0-4.0-1.53","true"
"690","ImagesSoccer/VL110.png","188","test",",","image-keyboard-response","292","304685","0.0-4.0-1.54","true"
"725","ImagesSoccer/VR107.5.png","190","test",".","image-keyboard-response","294","305913","0.0-4.0-1.55","true"
"771","ImagesTennis/TL110.png","188","test",",","image-keyboard-response","296","307186","0.0-4.0-1.56","true"
"1849","ImagesDirect/VL100.png","188","test",".","image-keyboard-response","298","309538","0.0-4.0-1.57","false"
"2016","ImagesDirect/VR97.5.png","188","test",",","image-keyboard-response","300","312054","0.0-4.0-1.58","true"
"873","ImagesTennis/TR110.png","190","test",".","image-keyboard-response","302","313429","0.0-4.0-1.59","true"
"647","ImagesDirect/VL110.png","188","test",",","image-keyboard-response","304","314577","0.0-4.0-1.60","true"
"1194","ImagesTennis/TR95.png","188","test",",","image-keyboard-response","306","316272","0.0-4.0-1.61","true"
"1825","ImagesTennis/TL107.5.png","188","test",",","image-keyboard-response","308","318601","0.0-4.0-1.62","true"
"2655","ImagesSoccer/VL105.png","188","test",",","image-keyboard-response","310","321758","0.0-4.0-1.63","true"
"1078","ImagesDirect/VL92.5.png","190","test",".","image-keyboard-response","312","323338","0.0-4.0-1.64","true"
"1360","ImagesTennis/TL90.png","190","test",".","image-keyboard-response","314","325200","0.0-4.0-1.65","true"
"2215","ImagesSoccer/VL95.png","190","test",".","image-keyboard-response","316","327916","0.0-4.0-1.66","true"
"2122","ImagesDirect/VR100.png","190","test",".","image-keyboard-response","318","330542","0.0-4.0-1.67","true"
"1569","ImagesDirect/VR110.png","190","test",".","image-keyboard-response","320","332613","0.0-4.0-1.68","true"
"2386","ImagesSoccer/VR100.png","188","test",".","image-keyboard-response","322","335501","0.0-4.0-1.69","false"
"864","ImagesTennis/TR100.png","188","test",".","image-keyboard-response","324","336866","0.0-4.0-1.70","false"
"753","ImagesDirect/VL107.5.png","188","test",",","image-keyboard-response","326","338122","0.0-4.0-1.71","true"
"901","ImagesSoccer/VL92.5.png","190","test",".","image-keyboard-response","328","339527","0.0-4.0-1.72","true"
"1243","ImagesDirect/VL95.png","190","test",".","image-keyboard-response","330","341273","0.0-4.0-1.73","true"
"834","ImagesTennis/TR97.5.png","188","test",",","image-keyboard-response","332","342608","0.0-4.0-1.74","true"
"1775","ImagesTennis/TL97.5.png","190","test",".","image-keyboard-response","334","344885","0.0-4.0-1.75","true"
"800","ImagesTennis/TR92.5.png","188","test",",","image-keyboard-response","336","346187","0.0-4.0-1.76","true"
"1181","ImagesTennis/TL100.png","188","test",".","image-keyboard-response","338","347871","0.0-4.0-1.77","false"
"1900","ImagesDirect/VL102.5.png","188","test",",","image-keyboard-response","340","350274","0.0-4.0-1.78","true"
"1315","ImagesSoccer/VL90.png","190","test",".","image-keyboard-response","342","352090","0.0-4.0-1.79","true"
"1610","ImagesSoccer/VR92.5.png","190","test",",","image-keyboard-response","344","354201","0.0-4.0-1.80","false"
"1895","ImagesSoccer/VR105.png","190","test",".","image-keyboard-response","346","356598","0.0-4.0-1.81","true"
"2517","ImagesSoccer/VR97.5.png","188","test",",","image-keyboard-response","348","359617","0.0-4.0-1.82","true"
"1149","ImagesSoccer/VL107.5.png","188","test",",","image-keyboard-response","350","361267","0.0-4.0-1.83","true"
"937","ImagesTennis/TR102.5.png","190","test",".","image-keyboard-response","352","362706","0.0-4.0-1.84","true"
"1530","ImagesSoccer/VL102.5.png","188","test",",","image-keyboard-response","354","364738","0.0-4.0-1.85","true"
"1240","ImagesTennis/TR105.png","190","test",".","image-keyboard-response","356","366479","0.0-4.0-1.86","true"
"714","ImagesSoccer/VR90.png","188","test",",","image-keyboard-response","358","367695","0.0-4.0-1.87","true"
"2147","ImagesSoccer/VR102.5.png","188","test",".","image-keyboard-response","360","370343","0.0-4.0-1.88","false"
"771","ImagesTennis/TL102.5.png","188","test",",","image-keyboard-response","362","371616","0.0-4.0-1.89","true"
"1342","ImagesDirect/VL97.5.png","188","test",".","image-keyboard-response","364","373460","0.0-4.0-1.90","false"
"856","ImagesSoccer/VR95.png","188","test",",","image-keyboard-response","366","374818","0.0-4.0-1.91","true"
"2963","ImagesDirect/VR102.5.png","190","test",".","image-keyboard-response","368","378283","0.0-4.0-1.92","true"
"823","ImagesDirect/VR107.5.png","190","test",".","image-keyboard-response","370","379607","0.0-4.0-1.93","true"
"834","ImagesTennis/TL105.png","188","test",",","image-keyboard-response","372","380943","0.0-4.0-1.94","true"
"715","ImagesTennis/TL92.5.png","190","test",".","image-keyboard-response","374","382159","0.0-4.0-1.95","true"
"1136","ImagesDirect/VR92.5.png","188","test",",","image-keyboard-response","376","383797","0.0-4.0-1.96","true"
"811","ImagesTennis/TR90.png","188","test",",","image-keyboard-response","378","385110","0.0-4.0-1.97","true"
"1274","ImagesSoccer/VL100.png","188","test",".","image-keyboard-response","380","386885","0.0-4.0-1.98","false"
"1359","ImagesSoccer/VR110.png","190","test",".","image-keyboard-response","382","388746","0.0-4.0-1.99","true"
"4328","ImagesDirect/VR95.png","190","test",",","image-keyboard-response","384","393575","0.0-4.0-1.100","false"
"720","ImagesDirect/VR90.png","188","test",",","image-keyboard-response","386","394796","0.0-4.0-1.101","true"
"1045","ImagesTennis/TR107.5.png","190","test",".","image-keyboard-response","388","396343","0.0-4.0-1.102","true"
"800","ImagesDirect/VL105.png","188","test",",","image-keyboard-response","390","397644","0.0-4.0-1.103","true"
"835","ImagesDirect/VL90.png","190","test",".","image-keyboard-response","392","398980","0.0-4.0-1.104","true"
"1028","ImagesTennis/TL95.png","190","test",".","image-keyboard-response","394","400510","0.0-4.0-1.105","true"
"1883","ImagesSoccer/VL97.5.png","188","test",".","image-keyboard-response","396","402895","0.0-4.0-1.106","false"
"681","ImagesDirect/VR105.png","190","test",".","image-keyboard-response","398","404077","0.0-4.0-1.107","true"
"812","ImagesSoccer/VR95.png","188","test",",","image-keyboard-response","400","405390","0.0-4.0-1.108","true"
"851","ImagesDirect/VR90.png","188","test",",","image-keyboard-response","402","406742","0.0-4.0-1.109","true"
"1702","ImagesDirect/VL107.5.png","188","test",",","image-keyboard-response","404","408945","0.0-4.0-1.110","true"
"1222","ImagesTennis/TL95.png","190","test",".","image-keyboard-response","406","410669","0.0-4.0-1.111","true"
"931","ImagesSoccer/VL92.5.png","190","test",".","image-keyboard-response","408","412102","0.0-4.0-1.112","true"
"1689","ImagesTennis/TL100.png","190","test",".","image-keyboard-response","410","414293","0.0-4.0-1.113","true"
"1062","ImagesSoccer/VR107.5.png","190","test",".","image-keyboard-response","412","415857","0.0-4.0-1.114","true"
"760","ImagesDirect/VR110.png","190","test",".","image-keyboard-response","414","417119","0.0-4.0-1.115","true"
"536","ImagesDirect/VR107.5.png","190","test",".","image-keyboard-response","416","418157","0.0-4.0-1.116","true"
"2860","ImagesSoccer/VL95.png","190","test",".","image-keyboard-response","418","421519","0.0-4.0-1.117","true"
"1016","ImagesSoccer/VL90.png","190","test",".","image-keyboard-response","420","423037","0.0-4.0-1.118","true"
"926","ImagesSoccer/VR90.png","188","test",",","image-keyboard-response","422","424464","0.0-4.0-1.119","true"
"2620","ImagesDirect/VR95.png","188","test",",","image-keyboard-response","424","427586","0.0-4.0-1.120","true"
"732","ImagesDirect/VR100.png","190","test",".","image-keyboard-response","426","428819","0.0-4.0-1.121","true"
"760","ImagesSoccer/VR105.png","190","test",".","image-keyboard-response","428","430081","0.0-4.0-1.122","true"
"1553","ImagesDirect/VL95.png","190","test",".","image-keyboard-response","430","432135","0.0-4.0-1.123","true"
"1116","ImagesTennis/TR105.png","190","test",".","image-keyboard-response","432","433751","0.0-4.0-1.124","true"
"886","ImagesTennis/TL90.png","190","test",".","image-keyboard-response","434","435138","0.0-4.0-1.125","true"
"868","ImagesTennis/TL92.5.png","190","test",".","image-keyboard-response","436","436508","0.0-4.0-1.126","true"
"702","ImagesTennis/TR90.png","188","test",",","image-keyboard-response","438","437712","0.0-4.0-1.127","true"
"1028","ImagesDirect/VL102.5.png","188","test",",","image-keyboard-response","440","439242","0.0-4.0-1.128","true"
"1045","ImagesDirect/VL105.png","188","test",",","image-keyboard-response","442","440789","0.0-4.0-1.129","true"
"965","ImagesDirect/VR97.5.png","190","test",",","image-keyboard-response","444","442255","0.0-4.0-1.130","false"
"868","ImagesSoccer/VR100.png","190","test",".","image-keyboard-response","446","443625","0.0-4.0-1.131","true"
"880","ImagesTennis/TL105.png","188","test",",","image-keyboard-response","448","445007","0.0-4.0-1.132","true"
"719","ImagesTennis/TL110.png","188","test",",","image-keyboard-response","450","446228","0.0-4.0-1.133","true"
"2286","ImagesSoccer/VL102.5.png","190","test",",","image-keyboard-response","452","449014","0.0-4.0-1.134","false"
"1062","ImagesSoccer/VL97.5.png","190","test",".","image-keyboard-response","454","450578","0.0-4.0-1.135","true"
"1519","ImagesTennis/TL107.5.png","188","test",",","image-keyboard-response","456","452598","0.0-4.0-1.136","true"
"1435","ImagesTennis/TL97.5.png","190","test",".","image-keyboard-response","458","454533","0.0-4.0-1.137","true"
"794","ImagesDirect/VR105.png","190","test",".","image-keyboard-response","460","455829","0.0-4.0-1.138","true"
"823","ImagesTennis/TR92.5.png","188","test",",","image-keyboard-response","462","457153","0.0-4.0-1.139","true"
"1085","ImagesDirect/VL110.png","188","test",",","image-keyboard-response","464","458740","0.0-4.0-1.140","true"
"1434","ImagesSoccer/VR110.png","190","test",".","image-keyboard-response","466","460675","0.0-4.0-1.141","true"
"1166","ImagesTennis/TR100.png","188","test",".","image-keyboard-response","468","462342","0.0-4.0-1.142","false"
"2090","ImagesSoccer/VL100.png","188","test",".","image-keyboard-response","470","464933","0.0-4.0-1.143","false"
"1313","ImagesTennis/TR107.5.png","190","test",".","image-keyboard-response","472","466748","0.0-4.0-1.144","true"
"2285","ImagesSoccer/VR102.5.png","190","test",".","image-keyboard-response","474","469534","0.0-4.0-1.145","true"
"1702","ImagesTennis/TR102.5.png","188","test",".","image-keyboard-response","476","471737","0.0-4.0-1.146","false"
"1427","ImagesTennis/TR97.5.png","188","test",",","image-keyboard-response","478","473666","0.0-4.0-1.147","true"
"686","ImagesTennis/TR95.png","188","test",",","image-keyboard-response","480","474853","0.0-4.0-1.148","true"
"1001","ImagesSoccer/VR92.5.png","188","test",",","image-keyboard-response","482","476355","0.0-4.0-1.149","true"
"1628","ImagesDirect/VR92.5.png","188","test",",","image-keyboard-response","484","478484","0.0-4.0-1.150","true"
"743","ImagesSoccer/VL107.5.png","188","test",",","image-keyboard-response","486","479728","0.0-4.0-1.151","true"
"1644","ImagesDirect/VR102.5.png","190","test",".","image-keyboard-response","488","481874","0.0-4.0-1.152","true"
"811","ImagesDirect/VL90.png","190","test",".","image-keyboard-response","490","483187","0.0-4.0-1.153","true"
"748","ImagesSoccer/VL110.png","188","test",",","image-keyboard-response","492","484437","0.0-4.0-1.154","true"
"628","ImagesSoccer/VL105.png","188","test",",","image-keyboard-response","494","485567","0.0-4.0-1.155","true"
"2177","ImagesSoccer/VR97.5.png","188","test",",","image-keyboard-response","496","488244","0.0-4.0-1.156","true"
"2736","ImagesTennis/TL102.5.png","190","test",",","image-keyboard-response","498","491481","0.0-4.0-1.157","false"
"1090","ImagesDirect/VL97.5.png","190","test",".","image-keyboard-response","500","493073","0.0-4.0-1.158","true"
"1313","ImagesDirect/VL92.5.png","188","test",".","image-keyboard-response","502","494888","0.0-4.0-1.159","false"
"2309","ImagesDirect/VL100.png","190","test",".","image-keyboard-response","504","497697","0.0-4.0-1.160","true"
"805","ImagesTennis/TR110.png","190","test",".","image-keyboard-response","506","499004","0.0-4.0-1.161","true"
"799","ImagesTennis/TL102.5.png","188","test",",","image-keyboard-response","508","500305","0.0-4.0-1.162","true"
"942","ImagesDirect/VL90.png","190","test",".","image-keyboard-response","510","501749","0.0-4.0-1.163","true"
"919","ImagesTennis/TL105.png","188","test",",","image-keyboard-response","512","503170","0.0-4.0-1.164","true"
"2445","ImagesSoccer/VR95.png","188","test",",","image-keyboard-response","514","506116","0.0-4.0-1.165","true"
"897","ImagesSoccer/VL105.png","188","test",",","image-keyboard-response","516","507514","0.0-4.0-1.166","true"
"1360","ImagesTennis/TR92.5.png","188","test",",","image-keyboard-response","518","509375","0.0-4.0-1.167","true"
"972","ImagesSoccer/VR110.png","190","test",".","image-keyboard-response","520","510848","0.0-4.0-1.168","true"
"771","ImagesSoccer/VL107.5.png","188","test",",","image-keyboard-response","522","512121","0.0-4.0-1.169","true"
"863","ImagesTennis/TL90.png","190","test",".","image-keyboard-response","524","513485","0.0-4.0-1.170","true"
"1244","ImagesTennis/TR107.5.png","190","test",".","image-keyboard-response","526","515231","0.0-4.0-1.171","true"
"1527","ImagesTennis/TL95.png","190","test",".","image-keyboard-response","528","517258","0.0-4.0-1.172","true"
"930","ImagesTennis/TR110.png","190","test",".","image-keyboard-response","530","518690","0.0-4.0-1.173","true"
"538","ImagesSoccer/VL110.png","188","test",",","image-keyboard-response","532","519729","0.0-4.0-1.174","true"
"976","ImagesDirect/VR92.5.png","188","test",",","image-keyboard-response","534","521207","0.0-4.0-1.175","true"
"542","ImagesTennis/TL110.png","188","test",",","image-keyboard-response","536","522252","0.0-4.0-1.176","true"
"2210","ImagesSoccer/VR102.5.png","190","test",".","image-keyboard-response","538","524963","0.0-4.0-1.177","true"
"1194","ImagesDirect/VL107.5.png","188","test",",","image-keyboard-response","540","526659","0.0-4.0-1.178","true"
"1027","ImagesDirect/VL102.5.png","188","test",",","image-keyboard-response","542","528188","0.0-4.0-1.179","true"
"1674","ImagesDirect/VL92.5.png","190","test",".","image-keyboard-response","544","530363","0.0-4.0-1.180","true"
"1211","ImagesDirect/VL110.png","188","test",",","image-keyboard-response","546","532076","0.0-4.0-1.181","true"
"1918","ImagesSoccer/VR100.png","190","test",".","image-keyboard-response","548","534496","0.0-4.0-1.182","true"
"788","ImagesDirect/VR110.png","190","test",".","image-keyboard-response","550","535786","0.0-4.0-1.183","true"
"1291","ImagesTennis/TL92.5.png","190","test",".","image-keyboard-response","552","537578","0.0-4.0-1.184","true"
"3095","ImagesTennis/TR105.png","188","test",".","image-keyboard-response","554","541174","0.0-4.0-1.185","false"
"1518","ImagesSoccer/VR105.png","190","test",".","image-keyboard-response","556","543194","0.0-4.0-1.186","true"
"1050","ImagesDirect/VL95.png","190","test",".","image-keyboard-response","558","544747","0.0-4.0-1.187","true"
"1257","ImagesTennis/TR97.5.png","188","test",",","image-keyboard-response","560","546505","0.0-4.0-1.188","true"
"2243","ImagesTennis/TR100.png","190","test",".","image-keyboard-response","562","549250","0.0-4.0-1.189","true"
"1193","ImagesSoccer/VL92.5.png","188","test",".","image-keyboard-response","564","550944","0.0-4.0-1.190","false"
"606","ImagesTennis/TR90.png","188","test",",","image-keyboard-response","566","552053","0.0-4.0-1.191","true"
"1101","ImagesDirect/VR95.png","188","test",",","image-keyboard-response","568","553657","0.0-4.0-1.192","true"
"1901","ImagesDirect/VL100.png","188","test",".","image-keyboard-response","570","556060","0.0-4.0-1.193","false"
"1723","ImagesDirect/VR90.png","188","test",",","image-keyboard-response","572","558286","0.0-4.0-1.194","true"
"2055","ImagesTennis/TL100.png","190","test",".","image-keyboard-response","574","560843","0.0-4.0-1.195","true"
"2512","ImagesSoccer/VR92.5.png","190","test",",","image-keyboard-response","576","563856","0.0-4.0-1.196","false"
"2208","ImagesSoccer/VL90.png","190","test",".","image-keyboard-response","578","566568","0.0-4.0-1.197","true"
"918","ImagesSoccer/VR107.5.png","190","test",".","image-keyboard-response","580","567988","0.0-4.0-1.198","true"
"1238","ImagesDirect/VR100.png","190","test",".","image-keyboard-response","582","569730","0.0-4.0-1.199","true"
"793","ImagesTennis/TL107.5.png","188","test",",","image-keyboard-response","584","571025","0.0-4.0-1.200","true"
"901","ImagesSoccer/VL102.5.png","188","test",",","image-keyboard-response","586","572429","0.0-4.0-1.201","true"
"2254","ImagesSoccer/VL95.png","190","test",".","image-keyboard-response","588","575186","0.0-4.0-1.202","true"
"1891","ImagesTennis/TR95.png","188","test",",","image-keyboard-response","590","577578","0.0-4.0-1.203","true"
"714","ImagesSoccer/VR97.5.png","188","test",",","image-keyboard-response","592","578794","0.0-4.0-1.204","true"
"2191","ImagesDirect/VL97.5.png","188","test",".","image-keyboard-response","594","581489","0.0-4.0-1.205","false"
"2181","ImagesTennis/TR102.5.png","188","test",".","image-keyboard-response","596","584171","0.0-4.0-1.206","false"
"1244","ImagesTennis/TL97.5.png","190","test",".","image-keyboard-response","598","585918","0.0-4.0-1.207","true"
"816","ImagesDirect/VR107.5.png","190","test",".","image-keyboard-response","600","587236","0.0-4.0-1.208","true"
"1656","ImagesSoccer/VL100.png","188","test",".","image-keyboard-response","602","589394","0.0-4.0-1.209","false"
"885","ImagesDirect/VL105.png","188","test",",","image-keyboard-response","604","590781","0.0-4.0-1.210","true"
"920","ImagesDirect/VR105.png","190","test",".","image-keyboard-response","606","592203","0.0-4.0-1.211","true"
"2786","ImagesSoccer/VL97.5.png","188","test",".","image-keyboard-response","608","595490","0.0-4.0-1.212","false"
"1908","ImagesDirect/VR97.5.png","188","test",",","image-keyboard-response","610","597899","0.0-4.0-1.213","true"
"1124","ImagesDirect/VR102.5.png","188","test",".","image-keyboard-response","612","599526","0.0-4.0-1.214","false"
"816","ImagesSoccer/VR90.png","188","test",",","image-keyboard-response","614","600844","0.0-4.0-1.215","true"
"673","ImagesDirect/VL107.5.png","188","test",",","image-keyboard-response","616","602020","0.0-4.0-1.216","true"
"1507","ImagesDirect/VR97.5.png","188","test",",","image-keyboard-response","618","604029","0.0-4.0-1.217","true"
"1034","ImagesTennis/TL92.5.png","190","test",".","image-keyboard-response","620","605565","0.0-4.0-1.218","true"
"743","ImagesDirect/VR107.5.png","190","test",".","image-keyboard-response","622","606809","0.0-4.0-1.219","true"
"1507","ImagesSoccer/VR100.png","188","test",".","image-keyboard-response","624","608818","0.0-4.0-1.220","false"
"2719","ImagesSoccer/VL97.5.png","190","test",".","image-keyboard-response","626","612038","0.0-4.0-1.221","true"
"845","ImagesTennis/TL97.5.png","190","test",".","image-keyboard-response","628","613385","0.0-4.0-1.222","true"
"1411","ImagesTennis/TR100.png","188","test",".","image-keyboard-response","630","615297","0.0-4.0-1.223","false"
"2295","ImagesDirect/VL97.5.png","190","test",".","image-keyboard-response","632","618094","0.0-4.0-1.224","true"
"1006","ImagesTennis/TL95.png","190","test",".","image-keyboard-response","634","619601","0.0-4.0-1.225","true"
"1399","ImagesTennis/TL110.png","188","test",",","image-keyboard-response","636","621502","0.0-4.0-1.226","true"
"1872","ImagesSoccer/VL95.png","190","test",".","image-keyboard-response","638","623876","0.0-4.0-1.227","true"
"765","ImagesTennis/TL90.png","190","test",".","image-keyboard-response","640","625143","0.0-4.0-1.228","true"
"1176","ImagesTennis/TR110.png","190","test",".","image-keyboard-response","642","626821","0.0-4.0-1.229","true"
"1199","ImagesDirect/VL100.png","188","test",".","image-keyboard-response","644","628522","0.0-4.0-1.230","false"
"942","ImagesTennis/TR90.png","188","test",",","image-keyboard-response","646","629966","0.0-4.0-1.231","true"
"731","ImagesTennis/TR95.png","188","test",",","image-keyboard-response","648","631199","0.0-4.0-1.232","true"
"2216","ImagesDirect/VR95.png","190","test",",","image-keyboard-response","650","633916","0.0-4.0-1.233","false"
"1273","ImagesSoccer/VL100.png","188","test",".","image-keyboard-response","652","635691","0.0-4.0-1.234","false"
"766","ImagesTennis/TL107.5.png","188","test",",","image-keyboard-response","654","636958","0.0-4.0-1.235","true"
"845","ImagesSoccer/VR92.5.png","188","test",",","image-keyboard-response","656","638305","0.0-4.0-1.236","true"
"783","ImagesSoccer/VR97.5.png","188","test",",","image-keyboard-response","658","639589","0.0-4.0-1.237","true"
"1058","ImagesSoccer/VR90.png","188","test",",","image-keyboard-response","660","641148","0.0-4.0-1.238","true"
"3356","ImagesDirect/VR92.5.png","190","test",",","image-keyboard-response","662","645006","0.0-4.0-1.239","false"
"1126","ImagesSoccer/VR102.5.png","190","test",".","image-keyboard-response","664","646633","0.0-4.0-1.240","true"
"2621","ImagesDirect/VL95.png","190","test",".","image-keyboard-response","666","649755","0.0-4.0-1.241","true"
"1147","ImagesSoccer/VL92.5.png","190","test",".","image-keyboard-response","668","651404","0.0-4.0-1.242","true"
"3106","ImagesDirect/VL92.5.png","188","test",".","image-keyboard-response","670","655011","0.0-4.0-1.243","false"
"1193","ImagesSoccer/VL107.5.png","188","test",",","image-keyboard-response","672","656706","0.0-4.0-1.244","true"
"1834","ImagesTennis/TL100.png","190","test",".","image-keyboard-response","674","659041","0.0-4.0-1.245","true"
"840","ImagesSoccer/VL102.5.png","188","test",",","image-keyboard-response","676","660382","0.0-4.0-1.246","true"
"1502","ImagesSoccer/VR95.png","188","test",",","image-keyboard-response","678","662385","0.0-4.0-1.247","true"
"1336","ImagesTennis/TL105.png","188","test",",","image-keyboard-response","680","664223","0.0-4.0-1.248","true"
"1570","ImagesTennis/TR107.5.png","190","test",".","image-keyboard-response","682","666295","0.0-4.0-1.249","true"
"1480","ImagesTennis/TR105.png","190","test",".","image-keyboard-response","684","668276","0.0-4.0-1.250","true"
"1340","ImagesTennis/TL102.5.png","188","test",",","image-keyboard-response","686","670119","0.0-4.0-1.251","true"
"1118","ImagesSoccer/VR105.png","188","test",".","image-keyboard-response","688","671740","0.0-4.0-1.252","false"
"1580","ImagesSoccer/VL105.png","188","test",",","image-keyboard-response","690","673823","0.0-4.0-1.253","true"
"2005","ImagesDirect/VR90.png","188","test",",","image-keyboard-response","692","676329","0.0-4.0-1.254","true"
"1684","ImagesDirect/VR105.png","190","test",".","image-keyboard-response","694","678515","0.0-4.0-1.255","true"
"1210","ImagesDirect/VL105.png","188","test",",","image-keyboard-response","696","680227","0.0-4.0-1.256","true"
"1147","ImagesTennis/TR92.5.png","188","test",",","image-keyboard-response","698","681877","0.0-4.0-1.257","true"
"1302","ImagesTennis/TR97.5.png","188","test",",","image-keyboard-response","700","683680","0.0-4.0-1.258","true"
"1981","ImagesDirect/VR100.png","190","test",".","image-keyboard-response","702","686163","0.0-4.0-1.259","true"
"673","ImagesDirect/VL110.png","188","test",",","image-keyboard-response","704","687339","0.0-4.0-1.260","true"
"667","ImagesSoccer/VR110.png","190","test",".","image-keyboard-response","706","688509","0.0-4.0-1.261","true"
"1786","ImagesDirect/VL90.png","190","test",".","image-keyboard-response","708","690797","0.0-4.0-1.262","true"
"607","ImagesDirect/VR110.png","190","test",".","image-keyboard-response","710","691906","0.0-4.0-1.263","true"
"981","ImagesSoccer/VL110.png","188","test",",","image-keyboard-response","712","693389","0.0-4.0-1.264","true"
"570","ImagesSoccer/VR107.5.png","190","test",".","image-keyboard-response","714","694462","0.0-4.0-1.265","true"
"1907","ImagesTennis/TR102.5.png","190","test",".","image-keyboard-response","716","696870","0.0-4.0-1.266","true"
"680","ImagesSoccer/VL90.png","190","test",".","image-keyboard-response","718","698052","0.0-4.0-1.267","true"
"628","ImagesDirect/VL102.5.png","188","test",",","image-keyboard-response","720","699182","0.0-4.0-1.268","true"
"1832","ImagesDirect/VR102.5.png","190","test",".","image-keyboard-response","722","701516","0.0-4.0-1.269","true"
