"rt","stimulus","key_press","test_part","correct_response","trial_type","trial_index","time_elapsed","internal_node_id","correct"
"1617","ImagesCoins/10L100.png","190","test",".","image-keyboard-response","4","24625","0.0-3.0-1.0","true"
"1473","ImagesCoins/10L95.png","190","test",".","image-keyboard-response","6","26602","0.0-3.0-1.1","true"
"1481","ImagesCoins/10L92.5.png","190","test",".","image-keyboard-response","8","28586","0.0-3.0-1.2","true"
"999","ImagesCoins/10L97.5.png","190","test",".","image-keyboard-response","10","30088","0.0-3.0-1.3","true"
"923","ImagesCoins/10L107.5.png","190","test",",","image-keyboard-response","12","31515","0.0-3.0-1.4","false"
"1615","ImagesCoins/10R107.5.png","188","test",".","image-keyboard-response","14","33633","0.0-3.0-1.5","false"
"1021","ImagesCoins/10L90.png","190","test",".","image-keyboard-response","16","35158","0.0-3.0-1.6","true"
"2284","ImagesCoins/10R97.5.png","190","test",",","image-keyboard-response","18","37945","0.0-3.0-1.7","false"
"1288","ImagesCoins/10L102.5.png","188","test",",","image-keyboard-response","20","39737","0.0-3.0-1.8","true"
"926","ImagesCoins/10R110.png","190","test",".","image-keyboard-response","22","41166","0.0-3.0-1.9","true"
"771","ImagesCoins/10R102.5.png","190","test",".","image-keyboard-response","24","42441","0.0-3.0-1.10","true"
"1390","ImagesCoins/10R105.png","190","test",".","image-keyboard-response","26","44334","0.0-3.0-1.11","true"
"1180","ImagesCoins/10R90.png","188","test",",","image-keyboard-response","28","46017","0.0-3.0-1.12","true"
"1125","ImagesCoins/10R92.5.png","188","test",",","image-keyboard-response","30","47646","0.0-3.0-1.13","true"
"1077","ImagesCoins/10L105.png","188","test",",","image-keyboard-response","32","49226","0.0-3.0-1.14","true"
"1137","ImagesCoins/10R100.png","190","test",".","image-keyboard-response","34","50866","0.0-3.0-1.15","true"
"864","ImagesCoins/10L110.png","188","test",",","image-keyboard-response","36","52235","0.0-3.0-1.16","true"
"1821","ImagesCoins/10R95.png","188","test",",","image-keyboard-response","38","54560","0.0-3.0-1.17","true"
"945","ImagesCoins/10R90.png","188","test",",","image-keyboard-response","40","56009","0.0-3.0-1.18","true"
"1492","ImagesCoins/10R95.png","188","test",",","image-keyboard-response","42","58005","0.0-3.0-1.19","true"
"1201","ImagesCoins/10R105.png","190","test",".","image-keyboard-response","44","59708","0.0-3.0-1.20","true"
"1958","ImagesCoins/10L90.png","190","test",".","image-keyboard-response","46","62169","0.0-3.0-1.21","true"
"1163","ImagesCoins/10L107.5.png","188","test",",","image-keyboard-response","48","63834","0.0-3.0-1.22","true"
"1317","ImagesCoins/10L105.png","188","test",",","image-keyboard-response","50","65653","0.0-3.0-1.23","true"
"2375","ImagesCoins/10L100.png","188","test",".","image-keyboard-response","52","68530","0.0-3.0-1.24","false"
"1257","ImagesCoins/10R97.5.png","190","test",",","image-keyboard-response","54","70290","0.0-3.0-1.25","false"
"927","ImagesCoins/10L92.5.png","190","test",".","image-keyboard-response","56","71720","0.0-3.0-1.26","true"
"710","ImagesCoins/10R110.png","190","test",".","image-keyboard-response","58","72933","0.0-3.0-1.27","true"
"570","ImagesCoins/10R100.png","190","test",".","image-keyboard-response","60","74007","0.0-3.0-1.28","true"
"2143","ImagesCoins/10L102.5.png","188","test",",","image-keyboard-response","62","76652","0.0-3.0-1.29","true"
"750","ImagesCoins/10L95.png","190","test",".","image-keyboard-response","64","77904","0.0-3.0-1.30","true"
"1259","ImagesCoins/10R92.5.png","188","test",",","image-keyboard-response","66","79665","0.0-3.0-1.31","true"
"772","ImagesCoins/10L110.png","188","test",",","image-keyboard-response","68","80939","0.0-3.0-1.32","true"
"541","ImagesCoins/10R102.5.png","190","test",".","image-keyboard-response","70","81983","0.0-3.0-1.33","true"
"1128","ImagesCoins/10L97.5.png","190","test",".","image-keyboard-response","72","83614","0.0-3.0-1.34","true"
"742","ImagesCoins/10R107.5.png","190","test",".","image-keyboard-response","74","84862","0.0-3.0-1.35","true"
"1808","ImagesCoins/10L97.5.png","188","test",".","image-keyboard-response","76","87174","0.0-3.0-1.36","false"
"737","ImagesCoins/10L90.png","190","test",".","image-keyboard-response","78","88415","0.0-3.0-1.37","true"
"980","ImagesCoins/10L92.5.png","190","test",".","image-keyboard-response","80","89897","0.0-3.0-1.38","true"
"706","ImagesCoins/10L95.png","190","test",".","image-keyboard-response","82","91105","0.0-3.0-1.39","true"
"877","ImagesCoins/10L110.png","188","test",",","image-keyboard-response","84","92489","0.0-3.0-1.40","true"
"536","ImagesCoins/10R102.5.png","190","test",".","image-keyboard-response","86","93528","0.0-3.0-1.41","true"
"1560","ImagesCoins/10R95.png","188","test",",","image-keyboard-response","88","95591","0.0-3.0-1.42","true"
"848","ImagesCoins/10L102.5.png","188","test",",","image-keyboard-response","90","96942","0.0-3.0-1.43","true"
"1334","ImagesCoins/10R92.5.png","190","test",",","image-keyboard-response","92","98779","0.0-3.0-1.44","false"
"779","ImagesCoins/10R107.5.png","190","test",".","image-keyboard-response","94","100061","0.0-3.0-1.45","true"
"511","ImagesCoins/10R110.png","190","test",".","image-keyboard-response","96","101074","0.0-3.0-1.46","true"
"663","ImagesCoins/10R100.png","190","test",".","image-keyboard-response","98","102241","0.0-3.0-1.47","true"
"571","ImagesCoins/10L105.png","188","test",",","image-keyboard-response","100","103314","0.0-3.0-1.48","true"
"536","ImagesCoins/10R97.5.png","190","test",",","image-keyboard-response","102","104353","0.0-3.0-1.49","false"
"712","ImagesCoins/10R105.png","190","test",".","image-keyboard-response","104","105569","0.0-3.0-1.50","true"
"574","ImagesCoins/10R90.png","188","test",",","image-keyboard-response","106","106645","0.0-3.0-1.51","true"
"1102","ImagesCoins/10L100.png","190","test",".","image-keyboard-response","108","108251","0.0-3.0-1.52","true"
"1320","ImagesCoins/10L107.5.png","188","test",",","image-keyboard-response","110","110073","0.0-3.0-1.53","true"
"1453","ImagesCoins/10R92.5.png","188","test",",","image-keyboard-response","112","112029","0.0-3.0-1.54","true"
"1552","ImagesCoins/10L107.5.png","188","test",",","image-keyboard-response","114","114085","0.0-3.0-1.55","true"
"599","ImagesCoins/10R102.5.png","190","test",".","image-keyboard-response","116","115186","0.0-3.0-1.56","true"
"1433","ImagesCoins/10R90.png","188","test",",","image-keyboard-response","118","117122","0.0-3.0-1.57","true"
"625","ImagesCoins/10L110.png","188","test",",","image-keyboard-response","120","118249","0.0-3.0-1.58","true"
"640","ImagesCoins/10L97.5.png","190","test",".","image-keyboard-response","122","119392","0.0-3.0-1.59","true"
"646","ImagesCoins/10R107.5.png","190","test",".","image-keyboard-response","124","120540","0.0-3.0-1.60","true"
"900","ImagesCoins/10R100.png","190","test",".","image-keyboard-response","126","121942","0.0-3.0-1.61","true"
"1915","ImagesCoins/10R105.png","190","test",".","image-keyboard-response","128","124359","0.0-3.0-1.62","true"
"966","ImagesCoins/10L102.5.png","188","test",",","image-keyboard-response","130","125828","0.0-3.0-1.63","true"
"658","ImagesCoins/10L90.png","190","test",".","image-keyboard-response","132","126988","0.0-3.0-1.64","true"
"1667","ImagesCoins/10L100.png","188","test",".","image-keyboard-response","134","129158","0.0-3.0-1.65","false"
"611","ImagesCoins/10L92.5.png","190","test",".","image-keyboard-response","136","130272","0.0-3.0-1.66","true"
"606","ImagesCoins/10R95.png","190","test",",","image-keyboard-response","138","131382","0.0-3.0-1.67","false"
"1170","ImagesCoins/10L95.png","190","test",".","image-keyboard-response","140","133055","0.0-3.0-1.68","true"
"856","ImagesCoins/10R110.png","190","test",".","image-keyboard-response","142","134416","0.0-3.0-1.69","true"
"1876","ImagesCoins/10R97.5.png","188","test",",","image-keyboard-response","144","136795","0.0-3.0-1.70","true"
"1146","ImagesCoins/10L105.png","188","test",",","image-keyboard-response","146","138442","0.0-3.0-1.71","true"
"1633","ImagesCoins/10L97.5.png","190","test",".","image-keyboard-response","148","140577","0.0-3.0-1.72","true"
"874","ImagesCoins/10L92.5.png","190","test",".","image-keyboard-response","150","141955","0.0-3.0-1.73","true"
"1149","ImagesCoins/10R90.png","188","test",",","image-keyboard-response","152","143606","0.0-3.0-1.74","true"
"700","ImagesCoins/10L100.png","190","test",".","image-keyboard-response","154","144808","0.0-3.0-1.75","true"
"1444","ImagesCoins/10R102.5.png","190","test",".","image-keyboard-response","156","146755","0.0-3.0-1.76","true"
"2164","ImagesCoins/10R100.png","190","test",".","image-keyboard-response","158","149421","0.0-3.0-1.77","true"
"804","ImagesCoins/10L90.png","190","test",".","image-keyboard-response","160","150727","0.0-3.0-1.78","true"
"1078","ImagesCoins/10L107.5.png","188","test",",","image-keyboard-response","162","152307","0.0-3.0-1.79","true"
"542","ImagesCoins/10R95.png","190","test",",","image-keyboard-response","164","153352","0.0-3.0-1.80","false"
"2338","ImagesCoins/10R92.5.png","188","test",",","image-keyboard-response","166","156193","0.0-3.0-1.81","true"
"3022","ImagesCoins/10R97.5.png","188","test",",","image-keyboard-response","168","159718","0.0-3.0-1.82","true"
"999","ImagesCoins/10R105.png","190","test",".","image-keyboard-response","170","161220","0.0-3.0-1.83","true"
"1008","ImagesCoins/10R107.5.png","190","test",".","image-keyboard-response","172","162731","0.0-3.0-1.84","true"
"872","ImagesCoins/10L110.png","188","test",",","image-keyboard-response","174","164106","0.0-3.0-1.85","true"
"708","ImagesCoins/10L105.png","188","test",",","image-keyboard-response","176","165317","0.0-3.0-1.86","true"
"2374","ImagesCoins/10L102.5.png","188","test",",","image-keyboard-response","178","168194","0.0-3.0-1.87","true"
"1008","ImagesCoins/10R110.png","190","test",".","image-keyboard-response","180","169706","0.0-3.0-1.88","true"
"2056","ImagesCoins/10L95.png","190","test",".","image-keyboard-response","182","172265","0.0-3.0-1.89","true"
"1434","ImagesDirect/VR107.5.png","190","test",".","image-keyboard-response","184","174203","0.0-4.0-1.0","true"
"1526","ImagesSoccer/VR107.5.png","190","test",".","image-keyboard-response","186","176232","0.0-4.0-1.1","true"
"1130","ImagesDirect/VL110.png","188","test",",","image-keyboard-response","188","177864","0.0-4.0-1.2","true"
"1660","ImagesDirect/VL100.png","190","test",".","image-keyboard-response","190","180027","0.0-4.0-1.3","true"
"1251","ImagesTennis/TR92.5.png","188","test",",","image-keyboard-response","192","181780","0.0-4.0-1.4","true"
"810","ImagesDirect/VR105.png","190","test",".","image-keyboard-response","194","183093","0.0-4.0-1.5","true"
"812","ImagesDirect/VL102.5.png","188","test",",","image-keyboard-response","196","184407","0.0-4.0-1.6","true"
"1466","ImagesTennis/TR97.5.png","188","test",",","image-keyboard-response","198","186376","0.0-4.0-1.7","true"
"949","ImagesSoccer/VL110.png","188","test",",","image-keyboard-response","200","187828","0.0-4.0-1.8","true"
"977","ImagesSoccer/VR100.png","190","test",".","image-keyboard-response","202","189308","0.0-4.0-1.9","true"
"848","ImagesSoccer/VL105.png","188","test",",","image-keyboard-response","204","190660","0.0-4.0-1.10","true"
"756","ImagesTennis/TR107.5.png","190","test",".","image-keyboard-response","206","191918","0.0-4.0-1.11","true"
"600","ImagesSoccer/VR110.png","190","test",".","image-keyboard-response","208","193022","0.0-4.0-1.12","true"
"2865","ImagesTennis/TL100.png","190","test",".","image-keyboard-response","210","196389","0.0-4.0-1.13","true"
"685","ImagesDirect/VR110.png","190","test",".","image-keyboard-response","212","197576","0.0-4.0-1.14","true"
"627","ImagesDirect/VR92.5.png","190","test",",","image-keyboard-response","214","198705","0.0-4.0-1.15","false"
"1431","ImagesDirect/VL92.5.png","188","test",".","image-keyboard-response","216","200639","0.0-4.0-1.16","false"
"815","ImagesDirect/VL97.5.png","188","test",".","image-keyboard-response","218","201958","0.0-4.0-1.17","false"
"1733","ImagesDirect/VR95.png","188","test",",","image-keyboard-response","220","204194","0.0-4.0-1.18","true"
"1132","ImagesDirect/VR100.png","190","test",".","image-keyboard-response","222","205829","0.0-4.0-1.19","true"
"1627","ImagesSoccer/VL97.5.png","190","test",".","image-keyboard-response","224","207959","0.0-4.0-1.20","true"
"750","ImagesTennis/TR110.png","190","test",".","image-keyboard-response","226","209212","0.0-4.0-1.21","true"
"648","ImagesDirect/VR97.5.png","190","test",",","image-keyboard-response","228","210362","0.0-4.0-1.22","false"
"757","ImagesSoccer/VL102.5.png","188","test",",","image-keyboard-response","230","211622","0.0-4.0-1.23","true"
"1523","ImagesTennis/TL105.png","188","test",",","image-keyboard-response","232","213648","0.0-4.0-1.24","true"
"1340","ImagesSoccer/VR90.png","188","test",",","image-keyboard-response","234","215491","0.0-4.0-1.25","true"
"673","ImagesDirect/VR102.5.png","190","test",".","image-keyboard-response","236","216667","0.0-4.0-1.26","true"
"1557","ImagesSoccer/VL100.png","188","test",".","image-keyboard-response","238","218727","0.0-4.0-1.27","false"
"939","ImagesSoccer/VL90.png","190","test",".","image-keyboard-response","240","220169","0.0-4.0-1.28","true"
"658","ImagesSoccer/VR102.5.png","190","test",".","image-keyboard-response","242","221330","0.0-4.0-1.29","true"
"750","ImagesDirect/VL105.png","188","test",",","image-keyboard-response","244","222583","0.0-4.0-1.30","true"
"1305","ImagesTennis/TR90.png","188","test",",","image-keyboard-response","246","224392","0.0-4.0-1.31","true"
"1140","ImagesSoccer/VR95.png","190","test",",","image-keyboard-response","248","226036","0.0-4.0-1.32","false"
"678","ImagesSoccer/VL107.5.png","188","test",",","image-keyboard-response","250","227217","0.0-4.0-1.33","true"
"1042","ImagesTennis/TL102.5.png","190","test",",","image-keyboard-response","252","228763","0.0-4.0-1.34","false"
"741","ImagesSoccer/VR105.png","190","test",".","image-keyboard-response","254","230005","0.0-4.0-1.35","true"
"1315","ImagesTennis/TR102.5.png","190","test",".","image-keyboard-response","256","231821","0.0-4.0-1.36","true"
"1875","ImagesTennis/TL107.5.png","188","test",",","image-keyboard-response","258","234199","0.0-4.0-1.37","true"
"1736","ImagesTennis/TR100.png","188","test",".","image-keyboard-response","260","236439","0.0-4.0-1.38","false"
"2015","ImagesTennis/TL110.png","188","test",",","image-keyboard-response","262","238956","0.0-4.0-1.39","true"
"723","ImagesTennis/TL97.5.png","190","test",".","image-keyboard-response","264","240182","0.0-4.0-1.40","true"
"797","ImagesTennis/TR105.png","190","test",".","image-keyboard-response","266","241481","0.0-4.0-1.41","true"
"852","ImagesDirect/VL107.5.png","188","test",",","image-keyboard-response","268","242838","0.0-4.0-1.42","true"
"1508","ImagesSoccer/VL95.png","190","test",".","image-keyboard-response","270","244848","0.0-4.0-1.43","true"
"697","ImagesSoccer/VR92.5.png","190","test",",","image-keyboard-response","272","246049","0.0-4.0-1.44","false"
"1068","ImagesTennis/TR95.png","190","test",",","image-keyboard-response","274","247619","0.0-4.0-1.45","false"
"1428","ImagesDirect/VL90.png","190","test",".","image-keyboard-response","276","249550","0.0-4.0-1.46","true"
"1592","ImagesDirect/VR90.png","190","test",",","image-keyboard-response","278","251645","0.0-4.0-1.47","false"
"1259","ImagesDirect/VL95.png","188","test",".","image-keyboard-response","280","253408","0.0-4.0-1.48","false"
"915","ImagesSoccer/VR97.5.png","190","test",",","image-keyboard-response","282","254827","0.0-4.0-1.49","false"
"1080","ImagesTennis/TL95.png","190","test",".","image-keyboard-response","284","256410","0.0-4.0-1.50","true"
"1055","ImagesTennis/TL92.5.png","190","test",".","image-keyboard-response","286","257968","0.0-4.0-1.51","true"
"1506","ImagesSoccer/VL92.5.png","188","test",".","image-keyboard-response","288","259978","0.0-4.0-1.52","false"
"1029","ImagesTennis/TL90.png","190","test",".","image-keyboard-response","290","261511","0.0-4.0-1.53","true"
"1724","ImagesTennis/TL100.png","188","test",".","image-keyboard-response","292","263737","0.0-4.0-1.54","false"
"903","ImagesTennis/TL107.5.png","188","test",",","image-keyboard-response","294","265144","0.0-4.0-1.55","true"
"927","ImagesSoccer/VR97.5.png","190","test",",","image-keyboard-response","296","266574","0.0-4.0-1.56","false"
"1458","ImagesDirect/VR92.5.png","190","test",",","image-keyboard-response","298","268534","0.0-4.0-1.57","false"
"655","ImagesSoccer/VL110.png","188","test",",","image-keyboard-response","300","269692","0.0-4.0-1.58","true"
"892","ImagesDirect/VL110.png","188","test",",","image-keyboard-response","302","271086","0.0-4.0-1.59","true"
"2475","ImagesTennis/TR102.5.png","190","test",".","image-keyboard-response","304","274063","0.0-4.0-1.60","true"
"2567","ImagesDirect/VL90.png","188","test",".","image-keyboard-response","306","277133","0.0-4.0-1.61","false"
"1351","ImagesSoccer/VL95.png","188","test",".","image-keyboard-response","308","278987","0.0-4.0-1.62","false"
"607","ImagesSoccer/VL102.5.png","188","test",",","image-keyboard-response","310","280097","0.0-4.0-1.63","true"
"558","ImagesTennis/TR95.png","190","test",",","image-keyboard-response","312","281157","0.0-4.0-1.64","false"
"683","ImagesDirect/VR97.5.png","190","test",",","image-keyboard-response","314","282344","0.0-4.0-1.65","false"
"680","ImagesDirect/VR110.png","190","test",".","image-keyboard-response","316","283526","0.0-4.0-1.66","true"
"753","ImagesDirect/VR105.png","190","test",".","image-keyboard-response","318","284782","0.0-4.0-1.67","true"
"826","ImagesTennis/TR97.5.png","188","test",",","image-keyboard-response","320","286112","0.0-4.0-1.68","true"
"731","ImagesDirect/VL107.5.png","188","test",",","image-keyboard-response","322","287346","0.0-4.0-1.69","true"
"523","ImagesDirect/VR107.5.png","190","test",".","image-keyboard-response","324","288372","0.0-4.0-1.70","true"
"2143","ImagesDirect/VR90.png","188","test",",","image-keyboard-response","326","291018","0.0-4.0-1.71","true"
"1363","ImagesSoccer/VL97.5.png","188","test",".","image-keyboard-response","328","292883","0.0-4.0-1.72","false"
"683","ImagesDirect/VR102.5.png","190","test",".","image-keyboard-response","330","294070","0.0-4.0-1.73","true"
"2053","ImagesSoccer/VR92.5.png","188","test",",","image-keyboard-response","332","296625","0.0-4.0-1.74","true"
"634","ImagesSoccer/VR110.png","190","test",".","image-keyboard-response","334","297763","0.0-4.0-1.75","true"
"490","ImagesSoccer/VR107.5.png","190","test",".","image-keyboard-response","336","298755","0.0-4.0-1.76","true"
"955","ImagesDirect/VL102.5.png","188","test",",","image-keyboard-response","338","300212","0.0-4.0-1.77","true"
"569","ImagesSoccer/VR100.png","190","test",".","image-keyboard-response","340","301285","0.0-4.0-1.78","true"
"759","ImagesTennis/TL95.png","190","test",".","image-keyboard-response","342","302548","0.0-4.0-1.79","true"
"1964","ImagesSoccer/VL90.png","188","test",".","image-keyboard-response","344","305014","0.0-4.0-1.80","false"
"871","ImagesDirect/VR100.png","190","test",".","image-keyboard-response","346","306388","0.0-4.0-1.81","true"
"1114","ImagesTennis/TL92.5.png","190","test",".","image-keyboard-response","348","308003","0.0-4.0-1.82","true"
"725","ImagesTennis/TR90.png","188","test",",","image-keyboard-response","350","309231","0.0-4.0-1.83","true"
"805","ImagesSoccer/VL105.png","188","test",",","image-keyboard-response","352","310539","0.0-4.0-1.84","true"
"558","ImagesTennis/TL90.png","190","test",".","image-keyboard-response","354","311600","0.0-4.0-1.85","true"
"602","ImagesDirect/VL105.png","188","test",",","image-keyboard-response","356","312704","0.0-4.0-1.86","true"
"668","ImagesDirect/VL97.5.png","188","test",".","image-keyboard-response","358","313874","0.0-4.0-1.87","false"
"573","ImagesSoccer/VL107.5.png","188","test",",","image-keyboard-response","360","314950","0.0-4.0-1.88","true"
"2130","ImagesSoccer/VR95.png","190","test",",","image-keyboard-response","362","317582","0.0-4.0-1.89","false"
"1098","ImagesTennis/TR100.png","188","test",".","image-keyboard-response","364","319183","0.0-4.0-1.90","false"
"596","ImagesSoccer/VL100.png","188","test",".","image-keyboard-response","366","320282","0.0-4.0-1.91","false"
"1455","ImagesTennis/TR107.5.png","190","test",".","image-keyboard-response","368","322239","0.0-4.0-1.92","true"
"1537","ImagesTennis/TL102.5.png","188","test",",","image-keyboard-response","370","324280","0.0-4.0-1.93","true"
"558","ImagesTennis/TL110.png","188","test",",","image-keyboard-response","372","325340","0.0-4.0-1.94","true"
"528","ImagesTennis/TR105.png","190","test",".","image-keyboard-response","374","326370","0.0-4.0-1.95","true"
"617","ImagesSoccer/VR102.5.png","190","test",".","image-keyboard-response","376","327489","0.0-4.0-1.96","true"
"1835","ImagesDirect/VL92.5.png","190","test",".","image-keyboard-response","378","329827","0.0-4.0-1.97","true"
"1672","ImagesTennis/TL105.png","188","test",",","image-keyboard-response","380","332001","0.0-4.0-1.98","true"
"574","ImagesDirect/VR95.png","190","test",",","image-keyboard-response","382","333079","0.0-4.0-1.99","false"
"939","ImagesSoccer/VR90.png","188","test",",","image-keyboard-response","384","334520","0.0-4.0-1.100","true"
"2922","ImagesSoccer/VL92.5.png","190","test",".","image-keyboard-response","386","337944","0.0-4.0-1.101","true"
"1092","ImagesDirect/VL100.png","188","test",".","image-keyboard-response","388","339538","0.0-4.0-1.102","false"
"1070","ImagesTennis/TR92.5.png","188","test",",","image-keyboard-response","390","341112","0.0-4.0-1.103","true"
"901","ImagesDirect/VL95.png","188","test",".","image-keyboard-response","392","342516","0.0-4.0-1.104","false"
"573","ImagesTennis/TL97.5.png","190","test",".","image-keyboard-response","394","343592","0.0-4.0-1.105","true"
"616","ImagesTennis/TR110.png","190","test",".","image-keyboard-response","396","344710","0.0-4.0-1.106","true"
"499","ImagesSoccer/VR105.png","190","test",".","image-keyboard-response","398","345712","0.0-4.0-1.107","true"
"1652","ImagesTennis/TL100.png","188","test",".","image-keyboard-response","400","347867","0.0-4.0-1.108","false"
"727","ImagesTennis/TL92.5.png","190","test",".","image-keyboard-response","402","349097","0.0-4.0-1.109","true"
"584","ImagesDirect/VR110.png","190","test",".","image-keyboard-response","404","350184","0.0-4.0-1.110","true"
"568","ImagesSoccer/VR107.5.png","190","test",".","image-keyboard-response","406","351254","0.0-4.0-1.111","true"
"638","ImagesDirect/VR107.5.png","190","test",".","image-keyboard-response","408","352395","0.0-4.0-1.112","true"
"783","ImagesTennis/TR92.5.png","188","test",",","image-keyboard-response","410","353680","0.0-4.0-1.113","true"
"1680","ImagesSoccer/VR90.png","190","test",",","image-keyboard-response","412","355863","0.0-4.0-1.114","false"
"2555","ImagesDirect/VL90.png","188","test",".","image-keyboard-response","414","358921","0.0-4.0-1.115","false"
"1093","ImagesDirect/VL97.5.png","188","test",".","image-keyboard-response","416","360517","0.0-4.0-1.116","false"
"567","ImagesSoccer/VR102.5.png","190","test",".","image-keyboard-response","418","361586","0.0-4.0-1.117","true"
"802","ImagesSoccer/VL102.5.png","188","test",",","image-keyboard-response","420","362891","0.0-4.0-1.118","true"
"1588","ImagesTennis/TL97.5.png","190","test",".","image-keyboard-response","422","364980","0.0-4.0-1.119","true"
"546","ImagesDirect/VL110.png","188","test",",","image-keyboard-response","424","366027","0.0-4.0-1.120","true"
"588","ImagesSoccer/VL105.png","188","test",",","image-keyboard-response","426","367116","0.0-4.0-1.121","true"
"2317","ImagesSoccer/VL95.png","188","test",".","image-keyboard-response","428","369935","0.0-4.0-1.122","false"
"1237","ImagesDirect/VL95.png","188","test",".","image-keyboard-response","430","371674","0.0-4.0-1.123","false"
"542","ImagesTennis/TR102.5.png","190","test",".","image-keyboard-response","432","372718","0.0-4.0-1.124","true"
"1569","ImagesSoccer/VR92.5.png","190","test",",","image-keyboard-response","434","374790","0.0-4.0-1.125","false"
"599","ImagesDirect/VL105.png","188","test",",","image-keyboard-response","436","375891","0.0-4.0-1.126","true"
"603","ImagesSoccer/VL97.5.png","188","test",".","image-keyboard-response","438","376997","0.0-4.0-1.127","false"
"1183","ImagesSoccer/VL90.png","190","test",".","image-keyboard-response","440","378684","0.0-4.0-1.128","true"
"831","ImagesTennis/TR90.png","188","test",",","image-keyboard-response","442","380017","0.0-4.0-1.129","true"
"574","ImagesTennis/TL90.png","190","test",".","image-keyboard-response","444","381093","0.0-4.0-1.130","true"
"1917","ImagesTennis/TR107.5.png","190","test",".","image-keyboard-response","446","383513","0.0-4.0-1.131","true"
"621","ImagesSoccer/VR95.png","190","test",",","image-keyboard-response","448","384637","0.0-4.0-1.132","false"
"510","ImagesTennis/TR110.png","190","test",".","image-keyboard-response","450","385650","0.0-4.0-1.133","true"
"1142","ImagesDirect/VR90.png","188","test",",","image-keyboard-response","452","387296","0.0-4.0-1.134","true"
"563","ImagesSoccer/VL110.png","188","test",",","image-keyboard-response","454","388360","0.0-4.0-1.135","true"
"571","ImagesTennis/TR105.png","190","test",".","image-keyboard-response","456","389434","0.0-4.0-1.136","true"
"1070","ImagesTennis/TL105.png","188","test",",","image-keyboard-response","458","391005","0.0-4.0-1.137","true"
"674","ImagesDirect/VR92.5.png","190","test",",","image-keyboard-response","460","392182","0.0-4.0-1.138","false"
"901","ImagesTennis/TR97.5.png","188","test",",","image-keyboard-response","462","393586","0.0-4.0-1.139","true"
"1816","ImagesSoccer/VR97.5.png","190","test",",","image-keyboard-response","464","395905","0.0-4.0-1.140","false"
"741","ImagesSoccer/VL107.5.png","188","test",",","image-keyboard-response","466","397150","0.0-4.0-1.141","true"
"602","ImagesDirect/VL107.5.png","188","test",",","image-keyboard-response","468","398255","0.0-4.0-1.142","true"
"952","ImagesSoccer/VL100.png","188","test",".","image-keyboard-response","470","399709","0.0-4.0-1.143","false"
"631","ImagesDirect/VR95.png","190","test",",","image-keyboard-response","472","400842","0.0-4.0-1.144","false"
"1385","ImagesDirect/VL102.5.png","188","test",",","image-keyboard-response","474","402731","0.0-4.0-1.145","true"
"556","ImagesDirect/VR97.5.png","190","test",",","image-keyboard-response","476","403788","0.0-4.0-1.146","false"
"1476","ImagesDirect/VL92.5.png","190","test",".","image-keyboard-response","478","405767","0.0-4.0-1.147","true"
"541","ImagesTennis/TR95.png","190","test",",","image-keyboard-response","480","406810","0.0-4.0-1.148","false"
"911","ImagesDirect/VL100.png","188","test",".","image-keyboard-response","482","408224","0.0-4.0-1.149","false"
"1461","ImagesTennis/TR100.png","190","test",".","image-keyboard-response","484","410188","0.0-4.0-1.150","true"
"674","ImagesSoccer/VR100.png","190","test",".","image-keyboard-response","486","411365","0.0-4.0-1.151","true"
"1811","ImagesTennis/TL107.5.png","188","test",",","image-keyboard-response","488","413678","0.0-4.0-1.152","true"
"1671","ImagesTennis/TL110.png","188","test",",","image-keyboard-response","490","415852","0.0-4.0-1.153","true"
"550","ImagesSoccer/VR110.png","190","test",".","image-keyboard-response","492","416906","0.0-4.0-1.154","true"
"545","ImagesSoccer/VR105.png","190","test",".","image-keyboard-response","494","417953","0.0-4.0-1.155","true"
"624","ImagesDirect/VR102.5.png","190","test",".","image-keyboard-response","496","419080","0.0-4.0-1.156","true"
"1664","ImagesTennis/TL95.png","190","test",".","image-keyboard-response","498","421247","0.0-4.0-1.157","true"
"665","ImagesDirect/VR100.png","190","test",".","image-keyboard-response","500","422414","0.0-4.0-1.158","true"
"675","ImagesDirect/VR105.png","190","test",".","image-keyboard-response","502","423592","0.0-4.0-1.159","true"
"3344","ImagesSoccer/VL92.5.png","188","test",".","image-keyboard-response","504","427439","0.0-4.0-1.160","false"
"3035","ImagesTennis/TL102.5.png","188","test",",","image-keyboard-response","506","430977","0.0-4.0-1.161","true"
"942","ImagesTennis/TR110.png","190","test",".","image-keyboard-response","508","432423","0.0-4.0-1.162","true"
"882","ImagesDirect/VL102.5.png","188","test",",","image-keyboard-response","510","433807","0.0-4.0-1.163","true"
"2829","ImagesSoccer/VL100.png","188","test",".","image-keyboard-response","512","437140","0.0-4.0-1.164","false"
"952","ImagesDirect/VR102.5.png","190","test",".","image-keyboard-response","514","438594","0.0-4.0-1.165","true"
"2832","ImagesTennis/TL100.png","188","test",".","image-keyboard-response","516","441929","0.0-4.0-1.166","false"
"852","ImagesSoccer/VL97.5.png","188","test",".","image-keyboard-response","518","443284","0.0-4.0-1.167","false"
"701","ImagesTennis/TL97.5.png","188","test",".","image-keyboard-response","520","444488","0.0-4.0-1.168","false"
"954","ImagesTennis/TR97.5.png","188","test",",","image-keyboard-response","522","445945","0.0-4.0-1.169","true"
"496","ImagesSoccer/VR107.5.png","190","test",".","image-keyboard-response","524","446945","0.0-4.0-1.170","true"
"965","ImagesDirect/VL97.5.png","188","test",".","image-keyboard-response","526","448411","0.0-4.0-1.171","false"
"487","ImagesTennis/TL92.5.png","190","test",".","image-keyboard-response","528","449402","0.0-4.0-1.172","true"
"522","ImagesDirect/VR110.png","190","test",".","image-keyboard-response","530","450426","0.0-4.0-1.173","true"
"478","ImagesDirect/VR107.5.png","190","test",".","image-keyboard-response","532","451406","0.0-4.0-1.174","true"
"518","ImagesDirect/VL100.png","188","test",".","image-keyboard-response","534","452428","0.0-4.0-1.175","false"
"1086","ImagesSoccer/VR92.5.png","188","test",",","image-keyboard-response","536","454016","0.0-4.0-1.176","true"
"634","ImagesSoccer/VL107.5.png","190","test",",","image-keyboard-response","538","455153","0.0-4.0-1.177","false"
"732","ImagesDirect/VR97.5.png","190","test",",","image-keyboard-response","540","456388","0.0-4.0-1.178","false"
"533","ImagesTennis/TR90.png","188","test",",","image-keyboard-response","542","457423","0.0-4.0-1.179","true"
"522","ImagesSoccer/VL102.5.png","190","test",",","image-keyboard-response","544","458448","0.0-4.0-1.180","false"
"724","ImagesSoccer/VR110.png","190","test",".","image-keyboard-response","546","459675","0.0-4.0-1.181","true"
"711","ImagesTennis/TL110.png","188","test",",","image-keyboard-response","548","460889","0.0-4.0-1.182","true"
"936","ImagesSoccer/VR95.png","190","test",",","image-keyboard-response","550","462328","0.0-4.0-1.183","false"
"1263","ImagesTennis/TR100.png","188","test",".","image-keyboard-response","552","464094","0.0-4.0-1.184","false"
"550","ImagesDirect/VL107.5.png","188","test",",","image-keyboard-response","554","465146","0.0-4.0-1.185","true"
"671","ImagesTennis/TR107.5.png","190","test",".","image-keyboard-response","556","466319","0.0-4.0-1.186","true"
"627","ImagesSoccer/VR105.png","190","test",".","image-keyboard-response","558","467449","0.0-4.0-1.187","true"
"646","ImagesSoccer/VR90.png","188","test",",","image-keyboard-response","560","468596","0.0-4.0-1.188","true"
"568","ImagesSoccer/VL110.png","188","test",",","image-keyboard-response","562","469666","0.0-4.0-1.189","true"
"718","ImagesSoccer/VL90.png","190","test",".","image-keyboard-response","564","470887","0.0-4.0-1.190","true"
"1285","ImagesTennis/TL90.png","190","test",".","image-keyboard-response","566","472675","0.0-4.0-1.191","true"
"623","ImagesDirect/VL105.png","188","test",",","image-keyboard-response","568","473801","0.0-4.0-1.192","true"
"776","ImagesSoccer/VL105.png","188","test",",","image-keyboard-response","570","475080","0.0-4.0-1.193","true"
"2977","ImagesTennis/TL102.5.png","188","test",",","image-keyboard-response","572","478563","0.0-4.0-1.194","true"
"820","ImagesTennis/TR95.png","190","test",",","image-keyboard-response","574","479886","0.0-4.0-1.195","false"
"1033","ImagesTennis/TR105.png","190","test",".","image-keyboard-response","576","481422","0.0-4.0-1.196","true"
"3094","ImagesDirect/VR90.png","190","test",",","image-keyboard-response","578","485019","0.0-4.0-1.197","false"
"1880","ImagesSoccer/VL95.png","188","test",".","image-keyboard-response","580","487401","0.0-4.0-1.198","false"
"706","ImagesDirect/VL90.png","190","test",".","image-keyboard-response","582","488609","0.0-4.0-1.199","true"
"836","ImagesSoccer/VR102.5.png","190","test",".","image-keyboard-response","584","489949","0.0-4.0-1.200","true"
"543","ImagesSoccer/VR97.5.png","190","test",",","image-keyboard-response","586","490995","0.0-4.0-1.201","false"
"827","ImagesDirect/VR95.png","190","test",",","image-keyboard-response","588","492325","0.0-4.0-1.202","false"
"1213","ImagesDirect/VL95.png","188","test",".","image-keyboard-response","590","494042","0.0-4.0-1.203","false"
"1122","ImagesTennis/TL105.png","188","test",",","image-keyboard-response","592","495666","0.0-4.0-1.204","true"
"776","ImagesDirect/VR105.png","190","test",".","image-keyboard-response","594","496945","0.0-4.0-1.205","true"
"685","ImagesSoccer/VL92.5.png","188","test",".","image-keyboard-response","596","498132","0.0-4.0-1.206","false"
"710","ImagesTennis/TR92.5.png","190","test",",","image-keyboard-response","598","499344","0.0-4.0-1.207","false"
"512","ImagesSoccer/VR100.png","190","test",".","image-keyboard-response","600","500359","0.0-4.0-1.208","true"
"763","ImagesDirect/VR92.5.png","190","test",",","image-keyboard-response","602","501623","0.0-4.0-1.209","false"
"783","ImagesTennis/TL107.5.png","190","test",",","image-keyboard-response","604","502908","0.0-4.0-1.210","false"
"488","ImagesDirect/VR100.png","190","test",".","image-keyboard-response","606","503899","0.0-4.0-1.211","true"
"584","ImagesTennis/TL95.png","190","test",".","image-keyboard-response","608","504985","0.0-4.0-1.212","true"
"614","ImagesDirect/VL110.png","188","test",",","image-keyboard-response","610","506102","0.0-4.0-1.213","true"
"514","ImagesTennis/TR102.5.png","190","test",".","image-keyboard-response","612","507120","0.0-4.0-1.214","true"
"1227","ImagesDirect/VL92.5.png","190","test",".","image-keyboard-response","614","508850","0.0-4.0-1.215","true"
"1006","ImagesTennis/TL105.png","188","test",",","image-keyboard-response","616","510358","0.0-4.0-1.216","true"
"694","ImagesTennis/TL100.png","188","test",".","image-keyboard-response","618","511554","0.0-4.0-1.217","false"
"718","ImagesTennis/TL102.5.png","188","test",",","image-keyboard-response","620","512774","0.0-4.0-1.218","true"
"850","ImagesSoccer/VL90.png","190","test",".","image-keyboard-response","622","514127","0.0-4.0-1.219","true"
"551","ImagesDirect/VR105.png","190","test",".","image-keyboard-response","624","515182","0.0-4.0-1.220","true"
"627","ImagesTennis/TR102.5.png","190","test",".","image-keyboard-response","626","516313","0.0-4.0-1.221","true"
"942","ImagesSoccer/VR90.png","188","test",",","image-keyboard-response","628","517758","0.0-4.0-1.222","true"
"1300","ImagesDirect/VL92.5.png","188","test",".","image-keyboard-response","630","519561","0.0-4.0-1.223","false"
"686","ImagesTennis/TR107.5.png","190","test",".","image-keyboard-response","632","520750","0.0-4.0-1.224","true"
"644","ImagesSoccer/VL97.5.png","188","test",".","image-keyboard-response","634","521898","0.0-4.0-1.225","false"
"500","ImagesSoccer/VR92.5.png","190","test",",","image-keyboard-response","636","522902","0.0-4.0-1.226","false"
"529","ImagesSoccer/VR100.png","190","test",".","image-keyboard-response","638","523933","0.0-4.0-1.227","true"
"608","ImagesDirect/VR110.png","190","test",".","image-keyboard-response","640","525045","0.0-4.0-1.228","true"
"753","ImagesTennis/TR110.png","190","test",".","image-keyboard-response","642","526301","0.0-4.0-1.229","true"
"614","ImagesDirect/VL107.5.png","188","test",",","image-keyboard-response","644","527418","0.0-4.0-1.230","true"
"505","ImagesSoccer/VL107.5.png","188","test",",","image-keyboard-response","646","528426","0.0-4.0-1.231","true"
"1045","ImagesSoccer/VL92.5.png","190","test",".","image-keyboard-response","648","529974","0.0-4.0-1.232","true"
"947","ImagesDirect/VL95.png","188","test",".","image-keyboard-response","650","531424","0.0-4.0-1.233","false"
"955","ImagesSoccer/VL102.5.png","190","test",",","image-keyboard-response","652","532882","0.0-4.0-1.234","false"
"1083","ImagesTennis/TR97.5.png","188","test",",","image-keyboard-response","654","534468","0.0-4.0-1.235","true"
"698","ImagesTennis/TL107.5.png","188","test",",","image-keyboard-response","656","535669","0.0-4.0-1.236","true"
"974","ImagesTennis/TR105.png","190","test",".","image-keyboard-response","658","537146","0.0-4.0-1.237","true"
"591","ImagesDirect/VR95.png","190","test",",","image-keyboard-response","660","538240","0.0-4.0-1.238","false"
"677","ImagesDirect/VL100.png","188","test",".","image-keyboard-response","662","539420","0.0-4.0-1.239","false"
"620","ImagesSoccer/VR110.png","190","test",".","image-keyboard-response","664","540543","0.0-4.0-1.240","true"
"686","ImagesDirect/VL105.png","188","test",",","image-keyboard-response","666","541731","0.0-4.0-1.241","true"
"884","ImagesSoccer/VL95.png","188","test",".","image-keyboard-response","668","543119","0.0-4.0-1.242","false"
"641","ImagesDirect/VL110.png","188","test",",","image-keyboard-response","670","544262","0.0-4.0-1.243","true"
"485","ImagesTennis/TR90.png","190","test",",","image-keyboard-response","672","545249","0.0-4.0-1.244","false"
"702","ImagesDirect/VR100.png","190","test",".","image-keyboard-response","674","546452","0.0-4.0-1.245","true"
"482","ImagesSoccer/VL100.png","188","test",".","image-keyboard-response","676","547436","0.0-4.0-1.246","false"
"493","ImagesSoccer/VR107.5.png","190","test",".","image-keyboard-response","678","548432","0.0-4.0-1.247","true"
"1009","ImagesSoccer/VR95.png","188","test",",","image-keyboard-response","680","549945","0.0-4.0-1.248","true"
"526","ImagesDirect/VR97.5.png","190","test",",","image-keyboard-response","682","550974","0.0-4.0-1.249","false"
"678","ImagesDirect/VL97.5.png","188","test",".","image-keyboard-response","684","552155","0.0-4.0-1.250","false"
"591","ImagesSoccer/VL110.png","188","test",",","image-keyboard-response","686","553249","0.0-4.0-1.251","true"
"1148","ImagesTennis/TL110.png","188","test",",","image-keyboard-response","688","554901","0.0-4.0-1.252","true"
"906","ImagesTennis/TR95.png","188","test",",","image-keyboard-response","690","556309","0.0-4.0-1.253","true"
"1106","ImagesTennis/TL90.png","190","test",".","image-keyboard-response","692","557919","0.0-4.0-1.254","true"
"1226","ImagesDirect/VR92.5.png","188","test",",","image-keyboard-response","694","559649","0.0-4.0-1.255","true"
"1162","ImagesSoccer/VR105.png","190","test",".","image-keyboard-response","696","561314","0.0-4.0-1.256","true"
"1274","ImagesTennis/TL92.5.png","190","test",".","image-keyboard-response","698","563091","0.0-4.0-1.257","true"
"594","ImagesDirect/VR102.5.png","190","test",".","image-keyboard-response","700","564189","0.0-4.0-1.258","true"
"1501","ImagesDirect/VR90.png","188","test",",","image-keyboard-response","702","566192","0.0-4.0-1.259","true"
"701","ImagesSoccer/VL105.png","188","test",",","image-keyboard-response","704","567395","0.0-4.0-1.260","true"
"542","ImagesSoccer/VR102.5.png","190","test",".","image-keyboard-response","706","568441","0.0-4.0-1.261","true"
"743","ImagesTennis/TR92.5.png","188","test",",","image-keyboard-response","708","569686","0.0-4.0-1.262","true"
"606","ImagesDirect/VR107.5.png","190","test",".","image-keyboard-response","710","570796","0.0-4.0-1.263","true"
"677","ImagesDirect/VL102.5.png","188","test",",","image-keyboard-response","712","571975","0.0-4.0-1.264","true"
"2238","ImagesTennis/TL97.5.png","188","test",".","image-keyboard-response","714","574715","0.0-4.0-1.265","false"
"1431","ImagesDirect/VL90.png","190","test",".","image-keyboard-response","716","576649","0.0-4.0-1.266","true"
"1058","ImagesSoccer/VR97.5.png","190","test",",","image-keyboard-response","718","578210","0.0-4.0-1.267","false"
"1153","ImagesTennis/TR100.png","188","test",".","image-keyboard-response","720","579866","0.0-4.0-1.268","false"
"829","ImagesTennis/TL95.png","190","test",".","image-keyboard-response","722","581198","0.0-4.0-1.269","true"
