"rt","stimulus","key_press","test_part","correct_response","trial_type","trial_index","time_elapsed","internal_node_id","correct"
"2419","ImagesDirect/VR90.png","188","test",",","image-keyboard-response","4","20913","0.0-3.0-1.0","true"
"567","ImagesTennis/TR110.png","190","test",".","image-keyboard-response","6","21990","0.0-3.0-1.1","true"
"623","ImagesDirect/VR110.png","190","test",".","image-keyboard-response","8","23127","0.0-3.0-1.2","true"
"935","ImagesTennis/TR90.png","188","test",",","image-keyboard-response","10","24568","0.0-3.0-1.3","true"
"933","ImagesDirect/VL105.png","188","test",",","image-keyboard-response","12","26016","0.0-3.0-1.4","true"
"607","ImagesDirect/VR95.png","190","test",",","image-keyboard-response","14","27135","0.0-3.0-1.5","false"
"783","ImagesTennis/TR100.png","190","test",".","image-keyboard-response","16","28426","0.0-3.0-1.6","true"
"775","ImagesSoccer/VR92.5.png","188","test",",","image-keyboard-response","18","29709","0.0-3.0-1.7","true"
"777","ImagesDirect/VL97.5.png","188","test",".","image-keyboard-response","20","31012","0.0-3.0-1.8","false"
"578","ImagesTennis/TR92.5.png","190","test",",","image-keyboard-response","22","32098","0.0-3.0-1.9","false"
"578","ImagesTennis/TL95.png","188","test",".","image-keyboard-response","24","33193","0.0-3.0-1.10","false"
"512","ImagesDirect/VR97.5.png","190","test",",","image-keyboard-response","26","34221","0.0-3.0-1.11","false"
"1034","ImagesTennis/TL100.png","188","test",".","image-keyboard-response","28","35777","0.0-3.0-1.12","false"
"676","ImagesDirect/VR92.5.png","190","test",",","image-keyboard-response","30","36969","0.0-3.0-1.13","false"
"794","ImagesSoccer/VL90.png","190","test",".","image-keyboard-response","32","38273","0.0-3.0-1.14","true"
"833","ImagesTennis/TL102.5.png","190","test",",","image-keyboard-response","34","39614","0.0-3.0-1.15","false"
"672","ImagesTennis/TL92.5.png","190","test",".","image-keyboard-response","36","40796","0.0-3.0-1.16","true"
"643","ImagesDirect/VR100.png","190","test",".","image-keyboard-response","38","41955","0.0-3.0-1.17","true"
"798","ImagesSoccer/VL95.png","188","test",".","image-keyboard-response","40","43270","0.0-3.0-1.18","false"
"487","ImagesDirect/VR102.5.png","190","test",".","image-keyboard-response","42","44279","0.0-3.0-1.19","true"
"694","ImagesSoccer/VL105.png","188","test",",","image-keyboard-response","44","45496","0.0-3.0-1.20","true"
"896","ImagesTennis/TL90.png","190","test",".","image-keyboard-response","46","46899","0.0-3.0-1.21","true"
"759","ImagesDirect/VR105.png","190","test",".","image-keyboard-response","48","48179","0.0-3.0-1.22","true"
"620","ImagesTennis/TR107.5.png","190","test",".","image-keyboard-response","50","49313","0.0-3.0-1.23","true"
"824","ImagesDirect/VL92.5.png","188","test",".","image-keyboard-response","52","50659","0.0-3.0-1.24","false"
"617","ImagesSoccer/VR110.png","190","test",".","image-keyboard-response","54","51791","0.0-3.0-1.25","true"
"1039","ImagesDirect/VL100.png","188","test",".","image-keyboard-response","56","53352","0.0-3.0-1.26","false"
"778","ImagesTennis/TL105.png","190","test",",","image-keyboard-response","58","54653","0.0-3.0-1.27","false"
"886","ImagesTennis/TL110.png","188","test",",","image-keyboard-response","60","56059","0.0-3.0-1.28","true"
"546","ImagesTennis/TR97.5.png","190","test",",","image-keyboard-response","62","57129","0.0-3.0-1.29","false"
"580","ImagesSoccer/VR102.5.png","190","test",".","image-keyboard-response","64","58223","0.0-3.0-1.30","true"
"1012","ImagesSoccer/VR107.5.png","190","test",".","image-keyboard-response","66","59756","0.0-3.0-1.31","true"
"759","ImagesSoccer/VL97.5.png","188","test",".","image-keyboard-response","68","61033","0.0-3.0-1.32","false"
"643","ImagesSoccer/VL92.5.png","190","test",".","image-keyboard-response","70","62185","0.0-3.0-1.33","true"
"626","ImagesDirect/VL110.png","188","test",",","image-keyboard-response","72","63329","0.0-3.0-1.34","true"
"550","ImagesSoccer/VR90.png","190","test",",","image-keyboard-response","74","64383","0.0-3.0-1.35","false"
"631","ImagesSoccer/VR95.png","190","test",",","image-keyboard-response","76","65522","0.0-3.0-1.36","false"
"550","ImagesDirect/VR107.5.png","190","test",".","image-keyboard-response","78","66582","0.0-3.0-1.37","true"
"625","ImagesTennis/TR102.5.png","190","test",".","image-keyboard-response","80","67728","0.0-3.0-1.38","true"
"618","ImagesSoccer/VR105.png","190","test",".","image-keyboard-response","82","68861","0.0-3.0-1.39","true"
"532","ImagesDirect/VL102.5.png","188","test",",","image-keyboard-response","84","69915","0.0-3.0-1.40","true"
"478","ImagesSoccer/VR100.png","190","test",".","image-keyboard-response","86","70902","0.0-3.0-1.41","true"
"575","ImagesSoccer/VL110.png","188","test",",","image-keyboard-response","88","71987","0.0-3.0-1.42","true"
"566","ImagesDirect/VL107.5.png","188","test",",","image-keyboard-response","90","73058","0.0-3.0-1.43","true"
"553","ImagesTennis/TR105.png","190","test",".","image-keyboard-response","92","74123","0.0-3.0-1.44","true"
"635","ImagesTennis/TL107.5.png","190","test",",","image-keyboard-response","94","75279","0.0-3.0-1.45","false"
"562","ImagesTennis/TL97.5.png","190","test",".","image-keyboard-response","96","76346","0.0-3.0-1.46","true"
"715","ImagesSoccer/VR97.5.png","190","test",",","image-keyboard-response","98","77567","0.0-3.0-1.47","false"
"794","ImagesDirect/VL90.png","190","test",".","image-keyboard-response","100","78875","0.0-3.0-1.48","true"
"586","ImagesSoccer/VL107.5.png","188","test",",","image-keyboard-response","102","79969","0.0-3.0-1.49","true"
"755","ImagesSoccer/VL102.5.png","188","test",",","image-keyboard-response","104","81238","0.0-3.0-1.50","true"
"567","ImagesDirect/VL95.png","190","test",".","image-keyboard-response","106","82311","0.0-3.0-1.51","true"
"486","ImagesSoccer/VL100.png","188","test",".","image-keyboard-response","108","83309","0.0-3.0-1.52","false"
"638","ImagesTennis/TR95.png","190","test",",","image-keyboard-response","110","84462","0.0-3.0-1.53","false"
"517","ImagesTennis/TR95.png","190","test",",","image-keyboard-response","112","85489","0.0-3.0-1.54","false"
"491","ImagesTennis/TR105.png","190","test",".","image-keyboard-response","114","86484","0.0-3.0-1.55","true"
"814","ImagesSoccer/VL95.png","188","test",".","image-keyboard-response","116","87816","0.0-3.0-1.56","false"
"430","ImagesSoccer/VR97.5.png","190","test",",","image-keyboard-response","118","88760","0.0-3.0-1.57","false"
"669","ImagesSoccer/VL105.png","188","test",",","image-keyboard-response","120","89951","0.0-3.0-1.58","true"
"545","ImagesDirect/VL110.png","188","test",",","image-keyboard-response","122","91006","0.0-3.0-1.59","true"
"602","ImagesTennis/TL90.png","190","test",".","image-keyboard-response","124","92115","0.0-3.0-1.60","true"
"567","ImagesTennis/TL107.5.png","188","test",",","image-keyboard-response","126","93198","0.0-3.0-1.61","true"
"696","ImagesSoccer/VL97.5.png","190","test",".","image-keyboard-response","128","94408","0.0-3.0-1.62","true"
"516","ImagesSoccer/VL102.5.png","188","test",",","image-keyboard-response","130","95428","0.0-3.0-1.63","true"
"534","ImagesDirect/VR110.png","190","test",".","image-keyboard-response","132","96465","0.0-3.0-1.64","true"
"885","ImagesDirect/VR95.png","188","test",",","image-keyboard-response","134","97858","0.0-3.0-1.65","true"
"424","ImagesDirect/VR107.5.png","190","test",".","image-keyboard-response","136","98786","0.0-3.0-1.66","true"
"546","ImagesSoccer/VL100.png","188","test",".","image-keyboard-response","138","99848","0.0-3.0-1.67","false"
"491","ImagesSoccer/VR90.png","190","test",",","image-keyboard-response","140","100853","0.0-3.0-1.68","false"
"678","ImagesSoccer/VR92.5.png","188","test",",","image-keyboard-response","142","102041","0.0-3.0-1.69","true"
"489","ImagesTennis/TR100.png","190","test",".","image-keyboard-response","144","103052","0.0-3.0-1.70","true"
"611","ImagesDirect/VL92.5.png","190","test",".","image-keyboard-response","146","104184","0.0-3.0-1.71","true"
"472","ImagesSoccer/VR102.5.png","190","test",".","image-keyboard-response","148","105163","0.0-3.0-1.72","true"
"526","ImagesSoccer/VR105.png","190","test",".","image-keyboard-response","150","106197","0.0-3.0-1.73","true"
"770","ImagesDirect/VL95.png","190","test",".","image-keyboard-response","152","107477","0.0-3.0-1.74","true"
"629","ImagesTennis/TR97.5.png","190","test",",","image-keyboard-response","154","108622","0.0-3.0-1.75","false"
"774","ImagesTennis/TR107.5.png","190","test",".","image-keyboard-response","156","109906","0.0-3.0-1.76","true"
"713","ImagesDirect/VL90.png","190","test",".","image-keyboard-response","158","111144","0.0-3.0-1.77","true"
"560","ImagesTennis/TR110.png","190","test",".","image-keyboard-response","160","112212","0.0-3.0-1.78","true"
"830","ImagesDirect/VR90.png","188","test",",","image-keyboard-response","162","113562","0.0-3.0-1.79","true"
"735","ImagesTennis/TL102.5.png","188","test",",","image-keyboard-response","164","114808","0.0-3.0-1.80","true"
"505","ImagesSoccer/VR95.png","190","test",",","image-keyboard-response","166","115815","0.0-3.0-1.81","false"
"701","ImagesTennis/TR90.png","188","test",",","image-keyboard-response","168","117033","0.0-3.0-1.82","true"
"550","ImagesDirect/VL107.5.png","188","test",",","image-keyboard-response","170","118102","0.0-3.0-1.83","true"
"485","ImagesDirect/VR105.png","190","test",".","image-keyboard-response","172","119096","0.0-3.0-1.84","true"
"703","ImagesDirect/VL100.png","190","test",".","image-keyboard-response","174","120316","0.0-3.0-1.85","true"
"473","ImagesSoccer/VR107.5.png","190","test",".","image-keyboard-response","176","121304","0.0-3.0-1.86","true"
"689","ImagesDirect/VR100.png","190","test",".","image-keyboard-response","178","122502","0.0-3.0-1.87","true"
"810","ImagesTennis/TR92.5.png","188","test",",","image-keyboard-response","180","123822","0.0-3.0-1.88","true"
"638","ImagesTennis/TL105.png","188","test",",","image-keyboard-response","182","124979","0.0-3.0-1.89","true"
"527","ImagesTennis/TR102.5.png","190","test",".","image-keyboard-response","184","126018","0.0-3.0-1.90","true"
"720","ImagesTennis/TL95.png","190","test",".","image-keyboard-response","186","127253","0.0-3.0-1.91","true"
"563","ImagesSoccer/VR110.png","190","test",".","image-keyboard-response","188","128320","0.0-3.0-1.92","true"
"561","ImagesSoccer/VL107.5.png","188","test",",","image-keyboard-response","190","129393","0.0-3.0-1.93","true"
"585","ImagesDirect/VR97.5.png","190","test",",","image-keyboard-response","192","130498","0.0-3.0-1.94","false"
"719","ImagesTennis/TL97.5.png","190","test",".","image-keyboard-response","194","131730","0.0-3.0-1.95","true"
"646","ImagesDirect/VL105.png","188","test",",","image-keyboard-response","196","132897","0.0-3.0-1.96","true"
"649","ImagesDirect/VL97.5.png","190","test",".","image-keyboard-response","198","134061","0.0-3.0-1.97","true"
"721","ImagesDirect/VR102.5.png","190","test",".","image-keyboard-response","200","135292","0.0-3.0-1.98","true"
"576","ImagesSoccer/VL90.png","188","test",".","image-keyboard-response","202","136389","0.0-3.0-1.99","false"
"557","ImagesSoccer/VL92.5.png","190","test",".","image-keyboard-response","204","137468","0.0-3.0-1.100","true"
"544","ImagesDirect/VL102.5.png","188","test",",","image-keyboard-response","206","138518","0.0-3.0-1.101","true"
"693","ImagesSoccer/VL110.png","188","test",",","image-keyboard-response","208","139724","0.0-3.0-1.102","true"
"734","ImagesTennis/TL92.5.png","190","test",".","image-keyboard-response","210","140965","0.0-3.0-1.103","true"
"500","ImagesTennis/TL100.png","190","test",".","image-keyboard-response","212","141973","0.0-3.0-1.104","true"
"969","ImagesTennis/TL110.png","188","test",",","image-keyboard-response","214","143461","0.0-3.0-1.105","true"
"650","ImagesSoccer/VR100.png","190","test",".","image-keyboard-response","216","144631","0.0-3.0-1.106","true"
"545","ImagesDirect/VR92.5.png","190","test",",","image-keyboard-response","218","145684","0.0-3.0-1.107","false"
"366","ImagesTennis/TL105.png","190","test",",","image-keyboard-response","220","146567","0.0-3.0-1.108","false"
"516","ImagesSoccer/VL102.5.png","188","test",",","image-keyboard-response","222","147598","0.0-3.0-1.109","true"
"640","ImagesDirect/VR100.png","190","test",".","image-keyboard-response","224","148741","0.0-3.0-1.110","true"
"534","ImagesDirect/VR107.5.png","190","test",".","image-keyboard-response","226","149795","0.0-3.0-1.111","true"
"522","ImagesSoccer/VL90.png","188","test",".","image-keyboard-response","228","150823","0.0-3.0-1.112","false"
"400","ImagesSoccer/VR107.5.png","190","test",".","image-keyboard-response","230","151742","0.0-3.0-1.113","true"
"655","ImagesSoccer/VR92.5.png","188","test",",","image-keyboard-response","232","152917","0.0-3.0-1.114","true"
"474","ImagesSoccer/VR97.5.png","190","test",",","image-keyboard-response","234","153896","0.0-3.0-1.115","false"
"610","ImagesDirect/VR92.5.png","188","test",",","image-keyboard-response","236","155011","0.0-3.0-1.116","true"
"656","ImagesTennis/TR90.png","188","test",",","image-keyboard-response","238","156178","0.0-3.0-1.117","true"
"517","ImagesTennis/TR97.5.png","188","test",",","image-keyboard-response","240","157199","0.0-3.0-1.118","true"
"860","ImagesSoccer/VL92.5.png","188","test",".","image-keyboard-response","242","158562","0.0-3.0-1.119","false"
"661","ImagesDirect/VR97.5.png","190","test",",","image-keyboard-response","244","159743","0.0-3.0-1.120","false"
"701","ImagesSoccer/VL110.png","188","test",",","image-keyboard-response","246","160963","0.0-3.0-1.121","true"
"561","ImagesDirect/VR95.png","190","test",",","image-keyboard-response","248","162042","0.0-3.0-1.122","false"
"551","ImagesTennis/TR100.png","190","test",".","image-keyboard-response","250","163113","0.0-3.0-1.123","true"
"584","ImagesDirect/VR90.png","188","test",",","image-keyboard-response","252","164206","0.0-3.0-1.124","true"
"554","ImagesDirect/VR110.png","190","test",".","image-keyboard-response","254","165265","0.0-3.0-1.125","true"
"580","ImagesSoccer/VL100.png","188","test",".","image-keyboard-response","256","166352","0.0-3.0-1.126","false"
"579","ImagesTennis/TL97.5.png","190","test",".","image-keyboard-response","258","167450","0.0-3.0-1.127","true"
"469","ImagesSoccer/VR100.png","190","test",".","image-keyboard-response","260","168441","0.0-3.0-1.128","true"
"524","ImagesDirect/VL97.5.png","188","test",".","image-keyboard-response","262","169476","0.0-3.0-1.129","false"
"619","ImagesTennis/TL95.png","190","test",".","image-keyboard-response","264","170610","0.0-3.0-1.130","true"
"428","ImagesDirect/VR102.5.png","190","test",".","image-keyboard-response","266","171559","0.0-3.0-1.131","true"
"620","ImagesDirect/VL107.5.png","188","test",",","image-keyboard-response","268","172687","0.0-3.0-1.132","true"
"601","ImagesTennis/TR92.5.png","190","test",",","image-keyboard-response","270","173793","0.0-3.0-1.133","false"
"595","ImagesSoccer/VL107.5.png","188","test",",","image-keyboard-response","272","174906","0.0-3.0-1.134","true"
"818","ImagesDirect/VL102.5.png","188","test",",","image-keyboard-response","274","176229","0.0-3.0-1.135","true"
"598","ImagesSoccer/VL97.5.png","188","test",".","image-keyboard-response","276","177350","0.0-3.0-1.136","false"
"533","ImagesDirect/VL100.png","188","test",".","image-keyboard-response","278","178395","0.0-3.0-1.137","false"
"538","ImagesDirect/VL90.png","190","test",".","image-keyboard-response","280","179440","0.0-3.0-1.138","true"
"571","ImagesTennis/TL110.png","188","test",",","image-keyboard-response","282","180533","0.0-3.0-1.139","true"
"495","ImagesSoccer/VL95.png","188","test",".","image-keyboard-response","284","181537","0.0-3.0-1.140","false"
"550","ImagesTennis/TR102.5.png","190","test",".","image-keyboard-response","286","182602","0.0-3.0-1.141","true"
"748","ImagesTennis/TL92.5.png","188","test",".","image-keyboard-response","288","183859","0.0-3.0-1.142","false"
"372","ImagesTennis/TR107.5.png","190","test",".","image-keyboard-response","290","184744","0.0-3.0-1.143","true"
"450","ImagesTennis/TR105.png","190","test",".","image-keyboard-response","292","185701","0.0-3.0-1.144","true"
"791","ImagesDirect/VL95.png","188","test",".","image-keyboard-response","294","187002","0.0-3.0-1.145","false"
"486","ImagesDirect/VL110.png","188","test",",","image-keyboard-response","296","187998","0.0-3.0-1.146","true"
"522","ImagesTennis/TR110.png","190","test",".","image-keyboard-response","298","189033","0.0-3.0-1.147","true"
"575","ImagesSoccer/VR105.png","190","test",".","image-keyboard-response","300","190127","0.0-3.0-1.148","true"
"611","ImagesTennis/TL90.png","188","test",".","image-keyboard-response","302","191243","0.0-3.0-1.149","false"
"570","ImagesDirect/VL92.5.png","190","test",".","image-keyboard-response","304","192322","0.0-3.0-1.150","true"
"554","ImagesTennis/TL107.5.png","188","test",",","image-keyboard-response","306","193387","0.0-3.0-1.151","true"
"499","ImagesTennis/TL102.5.png","188","test",",","image-keyboard-response","308","194391","0.0-3.0-1.152","true"
"582","ImagesDirect/VR105.png","190","test",".","image-keyboard-response","310","195489","0.0-3.0-1.153","true"
"494","ImagesSoccer/VR110.png","190","test",".","image-keyboard-response","312","196486","0.0-3.0-1.154","true"
"506","ImagesSoccer/VL105.png","188","test",",","image-keyboard-response","314","197498","0.0-3.0-1.155","true"
"443","ImagesSoccer/VR95.png","190","test",",","image-keyboard-response","316","198450","0.0-3.0-1.156","false"
"452","ImagesTennis/TL100.png","188","test",".","image-keyboard-response","318","199423","0.0-3.0-1.157","false"
"535","ImagesSoccer/VR90.png","190","test",",","image-keyboard-response","320","200467","0.0-3.0-1.158","false"
"680","ImagesDirect/VL105.png","188","test",",","image-keyboard-response","322","201661","0.0-3.0-1.159","true"
"1164","ImagesTennis/TR95.png","190","test",",","image-keyboard-response","324","203346","0.0-3.0-1.160","false"
"576","ImagesSoccer/VR102.5.png","190","test",".","image-keyboard-response","326","204437","0.0-3.0-1.161","true"
"399","ImagesSoccer/VR107.5.png","190","test",".","image-keyboard-response","328","205351","0.0-3.0-1.162","true"
"553","ImagesTennis/TR102.5.png","190","test",".","image-keyboard-response","330","206425","0.0-3.0-1.163","true"
"514","ImagesTennis/TL107.5.png","188","test",",","image-keyboard-response","332","207445","0.0-3.0-1.164","true"
"525","ImagesDirect/VL90.png","190","test",".","image-keyboard-response","334","208476","0.0-3.0-1.165","true"
"550","ImagesDirect/VL102.5.png","188","test",",","image-keyboard-response","336","209542","0.0-3.0-1.166","true"
"635","ImagesSoccer/VR92.5.png","190","test",",","image-keyboard-response","338","210686","0.0-3.0-1.167","false"
"1150","ImagesSoccer/VL90.png","190","test",".","image-keyboard-response","340","212361","0.0-3.0-1.168","true"
"1184","ImagesSoccer/VL110.png","188","test",",","image-keyboard-response","342","214056","0.0-3.0-1.169","true"
"1959","ImagesDirect/VL97.5.png","190","test",".","image-keyboard-response","344","216529","0.0-3.0-1.170","true"
"9178","ImagesSoccer/VR102.5.png","190","test",".","image-keyboard-response","346","226229","0.0-3.0-1.171","true"
"1091","ImagesTennis/TL102.5.png","188","test",",","image-keyboard-response","348","227831","0.0-3.0-1.172","true"
"778","ImagesDirect/VL100.png","188","test",".","image-keyboard-response","350","229129","0.0-3.0-1.173","false"
"500","ImagesTennis/TR105.png","190","test",".","image-keyboard-response","352","230152","0.0-3.0-1.174","true"
"501","ImagesTennis/TR107.5.png","190","test",".","image-keyboard-response","354","231172","0.0-3.0-1.175","true"
"680","ImagesDirect/VL105.png","188","test",",","image-keyboard-response","356","232372","0.0-3.0-1.176","true"
"675","ImagesTennis/TR92.5.png","190","test",",","image-keyboard-response","358","233566","0.0-3.0-1.177","false"
"452","ImagesTennis/TL92.5.png","188","test",".","image-keyboard-response","360","234523","0.0-3.0-1.178","false"
"574","ImagesTennis/TR90.png","188","test",",","image-keyboard-response","362","235605","0.0-3.0-1.179","true"
"581","ImagesDirect/VR95.png","188","test",",","image-keyboard-response","364","236693","0.0-3.0-1.180","true"
"485","ImagesSoccer/VL107.5.png","188","test",",","image-keyboard-response","366","237696","0.0-3.0-1.181","true"
"869","ImagesTennis/TL100.png","188","test",".","image-keyboard-response","368","239081","0.0-3.0-1.182","false"
"664","ImagesDirect/VR90.png","188","test",",","image-keyboard-response","370","240255","0.0-3.0-1.183","true"
"553","ImagesSoccer/VL100.png","188","test",".","image-keyboard-response","372","241319","0.0-3.0-1.184","false"
"548","ImagesTennis/TR97.5.png","190","test",",","image-keyboard-response","374","242381","0.0-3.0-1.185","false"
"456","ImagesDirect/VL110.png","188","test",",","image-keyboard-response","376","243348","0.0-3.0-1.186","true"
"432","ImagesDirect/VL107.5.png","188","test",",","image-keyboard-response","378","244283","0.0-3.0-1.187","true"
"430","ImagesSoccer/VR90.png","190","test",",","image-keyboard-response","380","245222","0.0-3.0-1.188","false"
"640","ImagesDirect/VL95.png","188","test",".","image-keyboard-response","382","246372","0.0-3.0-1.189","false"
"501","ImagesSoccer/VR105.png","190","test",".","image-keyboard-response","384","247393","0.0-3.0-1.190","true"
"666","ImagesTennis/TR100.png","188","test",".","image-keyboard-response","386","248569","0.0-3.0-1.191","false"
"427","ImagesSoccer/VR110.png","190","test",".","image-keyboard-response","388","249508","0.0-3.0-1.192","true"
"547","ImagesTennis/TR95.png","190","test",",","image-keyboard-response","390","250568","0.0-3.0-1.193","false"
"455","ImagesSoccer/VR95.png","190","test",",","image-keyboard-response","392","251537","0.0-3.0-1.194","false"
"371","ImagesSoccer/VR100.png","190","test",".","image-keyboard-response","394","252413","0.0-3.0-1.195","true"
"379","ImagesSoccer/VL97.5.png","190","test",".","image-keyboard-response","396","253301","0.0-3.0-1.196","true"
"486","ImagesDirect/VR97.5.png","190","test",",","image-keyboard-response","398","254307","0.0-3.0-1.197","false"
"457","ImagesSoccer/VL92.5.png","188","test",".","image-keyboard-response","400","255278","0.0-3.0-1.198","false"
"460","ImagesDirect/VR92.5.png","190","test",",","image-keyboard-response","402","256262","0.0-3.0-1.199","false"
"459","ImagesDirect/VR105.png","190","test",".","image-keyboard-response","404","257237","0.0-3.0-1.200","true"
"514","ImagesDirect/VR110.png","190","test",".","image-keyboard-response","406","258266","0.0-3.0-1.201","true"
"543","ImagesSoccer/VR97.5.png","190","test",",","image-keyboard-response","408","259315","0.0-3.0-1.202","false"
"442","ImagesSoccer/VL105.png","188","test",",","image-keyboard-response","410","260274","0.0-3.0-1.203","true"
"480","ImagesDirect/VR100.png","190","test",".","image-keyboard-response","412","261273","0.0-3.0-1.204","true"
"482","ImagesTennis/TL97.5.png","188","test",".","image-keyboard-response","414","262274","0.0-3.0-1.205","false"
"536","ImagesTennis/TL90.png","188","test",".","image-keyboard-response","416","263319","0.0-3.0-1.206","false"
"462","ImagesDirect/VR107.5.png","190","test",".","image-keyboard-response","418","264283","0.0-3.0-1.207","true"
"837","ImagesSoccer/VL95.png","190","test",".","image-keyboard-response","420","265638","0.0-3.0-1.208","true"
"1034","ImagesDirect/VR102.5.png","188","test",".","image-keyboard-response","422","267176","0.0-3.0-1.209","false"
"931","ImagesTennis/TL95.png","190","test",".","image-keyboard-response","424","268622","0.0-3.0-1.210","true"
"534","ImagesDirect/VL92.5.png","188","test",".","image-keyboard-response","426","269665","0.0-3.0-1.211","false"
"492","ImagesTennis/TL110.png","188","test",",","image-keyboard-response","428","270665","0.0-3.0-1.212","true"
"604","ImagesSoccer/VL102.5.png","188","test",",","image-keyboard-response","430","271777","0.0-3.0-1.213","true"
"466","ImagesTennis/TL105.png","188","test",",","image-keyboard-response","432","272757","0.0-3.0-1.214","true"
"507","ImagesTennis/TR110.png","190","test",".","image-keyboard-response","434","273778","0.0-3.0-1.215","true"
"522","ImagesTennis/TL100.png","188","test",".","image-keyboard-response","436","274815","0.0-3.0-1.216","false"
"469","ImagesSoccer/VL97.5.png","188","test",".","image-keyboard-response","438","275802","0.0-3.0-1.217","false"
"430","ImagesDirect/VL110.png","188","test",",","image-keyboard-response","440","276739","0.0-3.0-1.218","true"
"490","ImagesTennis/TR90.png","190","test",",","image-keyboard-response","442","277742","0.0-3.0-1.219","false"
"597","ImagesTennis/TR110.png","190","test",".","image-keyboard-response","444","278848","0.0-3.0-1.220","true"
"547","ImagesDirect/VL100.png","188","test",".","image-keyboard-response","446","279899","0.0-3.0-1.221","false"
"661","ImagesSoccer/VR110.png","190","test",".","image-keyboard-response","448","281072","0.0-3.0-1.222","true"
"702","ImagesDirect/VR90.png","188","test",",","image-keyboard-response","450","282293","0.0-3.0-1.223","true"
"617","ImagesTennis/TR92.5.png","188","test",",","image-keyboard-response","452","283428","0.0-3.0-1.224","true"
"490","ImagesSoccer/VL100.png","188","test",".","image-keyboard-response","454","284431","0.0-3.0-1.225","false"
"556","ImagesDirect/VR100.png","190","test",".","image-keyboard-response","456","285497","0.0-3.0-1.226","true"
"898","ImagesTennis/TL107.5.png","188","test",",","image-keyboard-response","458","286899","0.0-3.0-1.227","true"
"684","ImagesDirect/VL107.5.png","188","test",",","image-keyboard-response","460","288106","0.0-3.0-1.228","true"
"619","ImagesTennis/TL90.png","188","test",".","image-keyboard-response","462","289242","0.0-3.0-1.229","false"
"472","ImagesDirect/VR107.5.png","190","test",".","image-keyboard-response","464","290234","0.0-3.0-1.230","true"
"540","ImagesTennis/TL95.png","188","test",".","image-keyboard-response","466","291293","0.0-3.0-1.231","false"
"591","ImagesSoccer/VL95.png","188","test",".","image-keyboard-response","468","292402","0.0-3.0-1.232","false"
"530","ImagesSoccer/VR92.5.png","188","test",",","image-keyboard-response","470","293442","0.0-3.0-1.233","true"
"642","ImagesSoccer/VR107.5.png","190","test",".","image-keyboard-response","472","294593","0.0-3.0-1.234","true"
"622","ImagesDirect/VL90.png","190","test",".","image-keyboard-response","474","295735","0.0-3.0-1.235","true"
"507","ImagesSoccer/VL90.png","188","test",".","image-keyboard-response","476","296759","0.0-3.0-1.236","false"
"584","ImagesTennis/TR97.5.png","190","test",",","image-keyboard-response","478","297854","0.0-3.0-1.237","false"
"537","ImagesSoccer/VL105.png","188","test",",","image-keyboard-response","480","298908","0.0-3.0-1.238","true"
"556","ImagesTennis/TR100.png","190","test",".","image-keyboard-response","482","299978","0.0-3.0-1.239","true"
"636","ImagesSoccer/VL110.png","188","test",",","image-keyboard-response","484","301118","0.0-3.0-1.240","true"
"627","ImagesTennis/TL92.5.png","190","test",".","image-keyboard-response","486","302249","0.0-3.0-1.241","true"
"550","ImagesTennis/TR95.png","188","test",",","image-keyboard-response","488","303312","0.0-3.0-1.242","true"
"452","ImagesDirect/VL105.png","188","test",",","image-keyboard-response","490","304273","0.0-3.0-1.243","true"
"531","ImagesSoccer/VR97.5.png","190","test",",","image-keyboard-response","492","305322","0.0-3.0-1.244","false"
"610","ImagesDirect/VL95.png","188","test",".","image-keyboard-response","494","306436","0.0-3.0-1.245","false"
"636","ImagesTennis/TL97.5.png","188","test",".","image-keyboard-response","496","307583","0.0-3.0-1.246","false"
"484","ImagesSoccer/VR102.5.png","190","test",".","image-keyboard-response","498","308586","0.0-3.0-1.247","true"
"479","ImagesDirect/VR105.png","188","test",".","image-keyboard-response","500","309581","0.0-3.0-1.248","false"
"402","ImagesDirect/VR110.png","190","test",".","image-keyboard-response","502","310504","0.0-3.0-1.249","true"
"413","ImagesDirect/VR95.png","190","test",",","image-keyboard-response","504","311434","0.0-3.0-1.250","false"
"640","ImagesTennis/TR105.png","190","test",".","image-keyboard-response","506","312583","0.0-3.0-1.251","true"
"451","ImagesSoccer/VL102.5.png","188","test",",","image-keyboard-response","508","313541","0.0-3.0-1.252","true"
"453","ImagesSoccer/VR100.png","190","test",".","image-keyboard-response","510","314504","0.0-3.0-1.253","true"
"536","ImagesSoccer/VR105.png","190","test",".","image-keyboard-response","512","315545","0.0-3.0-1.254","true"
"831","ImagesSoccer/VL92.5.png","190","test",".","image-keyboard-response","514","316882","0.0-3.0-1.255","true"
"470","ImagesDirect/VR102.5.png","190","test",".","image-keyboard-response","516","317860","0.0-3.0-1.256","true"
"492","ImagesSoccer/VR90.png","190","test",",","image-keyboard-response","518","318859","0.0-3.0-1.257","false"
"409","ImagesTennis/TL105.png","188","test",",","image-keyboard-response","520","319778","0.0-3.0-1.258","true"
"536","ImagesDirect/VL102.5.png","188","test",",","image-keyboard-response","522","320828","0.0-3.0-1.259","true"
"577","ImagesTennis/TL110.png","188","test",",","image-keyboard-response","524","321908","0.0-3.0-1.260","true"
"550","ImagesDirect/VR97.5.png","188","test",",","image-keyboard-response","526","322962","0.0-3.0-1.261","true"
"446","ImagesDirect/VR92.5.png","188","test",",","image-keyboard-response","528","323928","0.0-3.0-1.262","true"
"475","ImagesTennis/TR107.5.png","190","test",".","image-keyboard-response","530","324916","0.0-3.0-1.263","true"
"386","ImagesSoccer/VL107.5.png","188","test",",","image-keyboard-response","532","325808","0.0-3.0-1.264","true"
"381","ImagesSoccer/VR95.png","190","test",",","image-keyboard-response","534","326704","0.0-3.0-1.265","false"
"424","ImagesDirect/VL92.5.png","190","test",".","image-keyboard-response","536","327645","0.0-3.0-1.266","true"
"517","ImagesDirect/VL97.5.png","188","test",".","image-keyboard-response","538","328680","0.0-3.0-1.267","false"
"430","ImagesTennis/TR102.5.png","190","test",".","image-keyboard-response","540","329633","0.0-3.0-1.268","true"
"544","ImagesTennis/TL102.5.png","190","test",",","image-keyboard-response","542","330697","0.0-3.0-1.269","false"
"932","ImagesCoins/10L92.5.png","190","test",".","image-keyboard-response","544","332144","0.0-4.0-1.0","true"
"1046","ImagesCoins/10R110.png","190","test",".","image-keyboard-response","546","333700","0.0-4.0-1.1","true"
"647","ImagesCoins/10R102.5.png","190","test",".","image-keyboard-response","548","334861","0.0-4.0-1.2","true"
"635","ImagesCoins/10R92.5.png","190","test",",","image-keyboard-response","550","336017","0.0-4.0-1.3","false"
"638","ImagesCoins/10L97.5.png","188","test",".","image-keyboard-response","552","337161","0.0-4.0-1.4","false"
"869","ImagesCoins/10R90.png","188","test",",","image-keyboard-response","554","338552","0.0-4.0-1.5","true"
"2066","ImagesCoins/10L100.png","188","test",".","image-keyboard-response","556","341139","0.0-4.0-1.6","false"
"769","ImagesCoins/10R107.5.png","190","test",".","image-keyboard-response","558","342423","0.0-4.0-1.7","true"
"740","ImagesCoins/10L107.5.png","188","test",",","image-keyboard-response","560","343672","0.0-4.0-1.8","true"
"1052","ImagesCoins/10L102.5.png","188","test",",","image-keyboard-response","562","345235","0.0-4.0-1.9","true"
"928","ImagesCoins/10R95.png","188","test",",","image-keyboard-response","564","346670","0.0-4.0-1.10","true"
"983","ImagesCoins/10R105.png","190","test",".","image-keyboard-response","566","348177","0.0-4.0-1.11","true"
"1412","ImagesCoins/10L95.png","190","test",".","image-keyboard-response","568","350095","0.0-4.0-1.12","true"
"674","ImagesCoins/10L90.png","190","test",".","image-keyboard-response","570","351276","0.0-4.0-1.13","true"
"613","ImagesCoins/10L110.png","188","test",",","image-keyboard-response","572","352395","0.0-4.0-1.14","true"
"542","ImagesCoins/10L105.png","188","test",",","image-keyboard-response","574","353445","0.0-4.0-1.15","true"
"1212","ImagesCoins/10R97.5.png","188","test",",","image-keyboard-response","576","355165","0.0-4.0-1.16","true"
"1132","ImagesCoins/10R100.png","190","test",".","image-keyboard-response","578","356815","0.0-4.0-1.17","true"
"937","ImagesCoins/10L90.png","190","test",".","image-keyboard-response","580","358259","0.0-4.0-1.18","true"
"717","ImagesCoins/10R97.5.png","188","test",",","image-keyboard-response","582","359488","0.0-4.0-1.19","true"
"777","ImagesCoins/10R95.png","190","test",",","image-keyboard-response","584","360769","0.0-4.0-1.20","false"
"597","ImagesCoins/10L92.5.png","190","test",".","image-keyboard-response","586","361869","0.0-4.0-1.21","true"
"674","ImagesCoins/10R110.png","190","test",".","image-keyboard-response","588","363056","0.0-4.0-1.22","true"
"794","ImagesCoins/10L102.5.png","190","test",",","image-keyboard-response","590","364356","0.0-4.0-1.23","false"
"751","ImagesCoins/10R90.png","188","test",",","image-keyboard-response","592","365612","0.0-4.0-1.24","true"
"3161","ImagesCoins/10R102.5.png","190","test",".","image-keyboard-response","594","369292","0.0-4.0-1.25","true"
"2231","ImagesCoins/10R105.png","190","test",".","image-keyboard-response","596","372032","0.0-4.0-1.26","true"
"817","ImagesCoins/10R92.5.png","188","test",",","image-keyboard-response","598","373368","0.0-4.0-1.27","true"
"1633","ImagesCoins/10L100.png","190","test",".","image-keyboard-response","600","375524","0.0-4.0-1.28","true"
"3086","ImagesCoins/10L107.5.png","190","test",",","image-keyboard-response","602","379117","0.0-4.0-1.29","false"
"1659","ImagesCoins/10R107.5.png","190","test",".","image-keyboard-response","604","381281","0.0-4.0-1.30","true"
"1474","ImagesCoins/10L97.5.png","188","test",".","image-keyboard-response","606","383276","0.0-4.0-1.31","false"
"941","ImagesCoins/10L95.png","190","test",".","image-keyboard-response","608","384723","0.0-4.0-1.32","true"
"621","ImagesCoins/10L105.png","190","test",",","image-keyboard-response","610","385862","0.0-4.0-1.33","false"
"608","ImagesCoins/10R100.png","188","test",".","image-keyboard-response","612","386984","0.0-4.0-1.34","false"
"724","ImagesCoins/10L110.png","188","test",",","image-keyboard-response","614","388216","0.0-4.0-1.35","true"
"501","ImagesCoins/10R100.png","190","test",".","image-keyboard-response","616","389232","0.0-4.0-1.36","true"
"587","ImagesCoins/10R110.png","190","test",".","image-keyboard-response","618","390339","0.0-4.0-1.37","true"
"450","ImagesCoins/10L105.png","188","test",",","image-keyboard-response","620","391302","0.0-4.0-1.38","true"
"2041","ImagesCoins/10R95.png","190","test",",","image-keyboard-response","622","393863","0.0-4.0-1.39","false"
"424","ImagesCoins/10R90.png","188","test",",","image-keyboard-response","624","394806","0.0-4.0-1.40","true"
"1340","ImagesCoins/10R105.png","188","test",".","image-keyboard-response","626","396662","0.0-4.0-1.41","false"
"507","ImagesCoins/10L95.png","188","test",".","image-keyboard-response","628","397688","0.0-4.0-1.42","false"
"319","ImagesCoins/10L110.png","190","test",",","image-keyboard-response","630","398520","0.0-4.0-1.43","false"
"417","ImagesCoins/10L97.5.png","190","test",".","image-keyboard-response","632","399459","0.0-4.0-1.44","true"
"248","ImagesCoins/10L102.5.png","188","test",",","image-keyboard-response","634","400229","0.0-4.0-1.45","true"
"55","ImagesCoins/10L107.5.png","188","test",",","image-keyboard-response","636","400797","0.0-4.0-1.46","true"
"21","ImagesCoins/10R97.5.png","188","test",",","image-keyboard-response","638","401342","0.0-4.0-1.47","true"
"17","ImagesCoins/10R92.5.png","190","test",",","image-keyboard-response","640","401879","0.0-4.0-1.48","false"
"85","ImagesCoins/10R102.5.png","188","test",".","image-keyboard-response","642","402484","0.0-4.0-1.49","false"
"40","ImagesCoins/10L90.png","190","test",".","image-keyboard-response","644","403037","0.0-4.0-1.50","true"
"24","ImagesCoins/10L92.5.png","188","test",".","image-keyboard-response","646","403565","0.0-4.0-1.51","false"
"8","ImagesCoins/10L100.png","188","test",".","image-keyboard-response","648","404089","0.0-4.0-1.52","false"
"62","ImagesCoins/10R107.5.png","188","test",".","image-keyboard-response","650","404662","0.0-4.0-1.53","false"
"103","ImagesCoins/10R100.png","190","test",".","image-keyboard-response","652","405285","0.0-4.0-1.54","true"
"132","ImagesCoins/10L107.5.png","188","test",",","image-keyboard-response","654","405933","0.0-4.0-1.55","true"
"91","ImagesCoins/10L90.png","190","test",".","image-keyboard-response","656","406533","0.0-4.0-1.56","true"
"18","ImagesCoins/10L100.png","190","test",".","image-keyboard-response","658","407059","0.0-4.0-1.57","true"
"910","ImagesCoins/10R110.png","190","test",".","image-keyboard-response","660","408492","0.0-4.0-1.58","true"
"457","ImagesCoins/10L105.png","188","test",",","image-keyboard-response","662","409458","0.0-4.0-1.59","true"
"537","ImagesCoins/10R102.5.png","190","test",".","image-keyboard-response","664","410508","0.0-4.0-1.60","true"
"1250","ImagesCoins/10L110.png","188","test",",","image-keyboard-response","666","412261","0.0-4.0-1.61","true"
"1313","ImagesCoins/10R95.png","188","test",",","image-keyboard-response","668","414096","0.0-4.0-1.62","true"
"752","ImagesCoins/10R92.5.png","188","test",",","image-keyboard-response","670","415355","0.0-4.0-1.63","true"
"393","ImagesCoins/10R90.png","188","test",",","image-keyboard-response","672","416266","0.0-4.0-1.64","true"
"441","ImagesCoins/10R105.png","188","test",".","image-keyboard-response","674","417212","0.0-4.0-1.65","false"
"546","ImagesCoins/10L102.5.png","188","test",",","image-keyboard-response","676","418277","0.0-4.0-1.66","true"
"651","ImagesCoins/10R107.5.png","188","test",".","image-keyboard-response","678","419443","0.0-4.0-1.67","false"
"641","ImagesCoins/10L97.5.png","190","test",".","image-keyboard-response","680","420593","0.0-4.0-1.68","true"
"845","ImagesCoins/10L95.png","190","test",".","image-keyboard-response","682","421956","0.0-4.0-1.69","true"
"475","ImagesCoins/10R97.5.png","190","test",",","image-keyboard-response","684","422946","0.0-4.0-1.70","false"
"459","ImagesCoins/10L92.5.png","190","test",".","image-keyboard-response","686","423909","0.0-4.0-1.71","true"
"517","ImagesCoins/10L102.5.png","188","test",",","image-keyboard-response","688","424951","0.0-4.0-1.72","true"
"651","ImagesCoins/10R105.png","190","test",".","image-keyboard-response","690","426123","0.0-4.0-1.73","true"
"1104","ImagesCoins/10L97.5.png","190","test",".","image-keyboard-response","692","427736","0.0-4.0-1.74","true"
"722","ImagesCoins/10L105.png","188","test",",","image-keyboard-response","694","428971","0.0-4.0-1.75","true"
"742","ImagesCoins/10R97.5.png","188","test",",","image-keyboard-response","696","430233","0.0-4.0-1.76","true"
"85","ImagesCoins/10R100.png","188","test",".","image-keyboard-response","698","430825","0.0-4.0-1.77","false"
"113","ImagesCoins/10R95.png","190","test",",","image-keyboard-response","700","431454","0.0-4.0-1.78","false"
"41","ImagesCoins/10L100.png","190","test",".","image-keyboard-response","702","432002","0.0-4.0-1.79","true"
"244","ImagesCoins/10L90.png","190","test",".","image-keyboard-response","704","432765","0.0-4.0-1.80","true"
"3","ImagesCoins/10R92.5.png","190","test",",","image-keyboard-response","706","433285","0.0-4.0-1.81","false"
"57","ImagesCoins/10L92.5.png","190","test",".","image-keyboard-response","708","433858","0.0-4.0-1.82","true"
"10","ImagesCoins/10L107.5.png","190","test",",","image-keyboard-response","710","434392","0.0-4.0-1.83","false"
"514","ImagesCoins/10R102.5.png","188","test",".","image-keyboard-response","712","435417","0.0-4.0-1.84","false"
"38","ImagesCoins/10L95.png","188","test",".","image-keyboard-response","714","435960","0.0-4.0-1.85","false"
"91","ImagesCoins/10R90.png","190","test",",","image-keyboard-response","716","436573","0.0-4.0-1.86","false"
"80","ImagesCoins/10R110.png","188","test",".","image-keyboard-response","718","437162","0.0-4.0-1.87","false"
"73","ImagesCoins/10L110.png","188","test",",","image-keyboard-response","720","437755","0.0-4.0-1.88","true"
"95","ImagesCoins/10R107.5.png","190","test",".","image-keyboard-response","722","438353","0.0-4.0-1.89","true"
