"rt","stimulus","key_press","test_part","correct_response","trial_type","trial_index","time_elapsed","internal_node_id","correct"
"2742","ImagesSoccer/VL110.png","188","test",",","image-keyboard-response","4","22260","0.0-3.0-1.0","true"
"2652","ImagesTennis/TR95.png","188","test",",","image-keyboard-response","6","25417","0.0-3.0-1.1","true"
"3927","ImagesDirect/VR92.5.png","188","test",",","image-keyboard-response","8","29847","0.0-3.0-1.2","true"
"965","ImagesSoccer/VL90.png","190","test",".","image-keyboard-response","10","31316","0.0-3.0-1.3","true"
"1367","ImagesSoccer/VL97.5.png","190","test",".","image-keyboard-response","12","33186","0.0-3.0-1.4","true"
"751","ImagesTennis/TL95.png","190","test",".","image-keyboard-response","14","34441","0.0-3.0-1.5","true"
"661","ImagesDirect/VL110.png","188","test",",","image-keyboard-response","16","35606","0.0-3.0-1.6","true"
"923","ImagesDirect/VR95.png","190","test",",","image-keyboard-response","18","37032","0.0-3.0-1.7","false"
"1461","ImagesTennis/TL105.png","190","test",",","image-keyboard-response","20","38996","0.0-3.0-1.8","false"
"1057","ImagesDirect/VR90.png","190","test",",","image-keyboard-response","22","40556","0.0-3.0-1.9","false"
"715","ImagesTennis/TR90.png","188","test",",","image-keyboard-response","24","41773","0.0-3.0-1.10","true"
"874","ImagesSoccer/VR107.5.png","190","test",".","image-keyboard-response","26","43150","0.0-3.0-1.11","true"
"2458","ImagesSoccer/VL102.5.png","188","test",",","image-keyboard-response","28","46111","0.0-3.0-1.12","true"
"708","ImagesTennis/TL92.5.png","190","test",".","image-keyboard-response","30","47323","0.0-3.0-1.13","true"
"2461","ImagesDirect/VL95.png","188","test",".","image-keyboard-response","32","50287","0.0-3.0-1.14","false"
"1893","ImagesTennis/TR105.png","190","test",".","image-keyboard-response","34","52684","0.0-3.0-1.15","true"
"1126","ImagesSoccer/VL105.png","188","test",",","image-keyboard-response","36","54313","0.0-3.0-1.16","true"
"890","ImagesSoccer/VL95.png","190","test",".","image-keyboard-response","38","55706","0.0-3.0-1.17","true"
"1018","ImagesSoccer/VR105.png","190","test",".","image-keyboard-response","40","57228","0.0-3.0-1.18","true"
"852","ImagesTennis/TR92.5.png","188","test",",","image-keyboard-response","42","58583","0.0-3.0-1.19","true"
"744","ImagesTennis/TL97.5.png","190","test",".","image-keyboard-response","44","59830","0.0-3.0-1.20","true"
"1398","ImagesDirect/VL92.5.png","190","test",".","image-keyboard-response","46","61731","0.0-3.0-1.21","true"
"996","ImagesSoccer/VR110.png","190","test",".","image-keyboard-response","48","63231","0.0-3.0-1.22","true"
"761","ImagesTennis/TR102.5.png","188","test",".","image-keyboard-response","50","64495","0.0-3.0-1.23","false"
"1030","ImagesTennis/TL100.png","188","test",".","image-keyboard-response","52","66028","0.0-3.0-1.24","false"
"1142","ImagesDirect/VL97.5.png","188","test",".","image-keyboard-response","54","67673","0.0-3.0-1.25","false"
"685","ImagesTennis/TR100.png","190","test",".","image-keyboard-response","56","68862","0.0-3.0-1.26","true"
"873","ImagesSoccer/VR95.png","190","test",",","image-keyboard-response","58","70239","0.0-3.0-1.27","false"
"793","ImagesTennis/TR110.png","190","test",".","image-keyboard-response","60","71536","0.0-3.0-1.28","true"
"3176","ImagesDirect/VL100.png","188","test",".","image-keyboard-response","62","75215","0.0-3.0-1.29","false"
"997","ImagesDirect/VR107.5.png","190","test",".","image-keyboard-response","64","76715","0.0-3.0-1.30","true"
"1521","ImagesTennis/TR107.5.png","190","test",".","image-keyboard-response","66","78740","0.0-3.0-1.31","true"
"1087","ImagesSoccer/VL92.5.png","190","test",".","image-keyboard-response","68","80330","0.0-3.0-1.32","true"
"780","ImagesDirect/VL107.5.png","188","test",",","image-keyboard-response","70","81613","0.0-3.0-1.33","true"
"1050","ImagesSoccer/VR102.5.png","190","test",".","image-keyboard-response","72","83167","0.0-3.0-1.34","true"
"771","ImagesSoccer/VL107.5.png","188","test",",","image-keyboard-response","74","84441","0.0-3.0-1.35","true"
"777","ImagesDirect/VR102.5.png","190","test",".","image-keyboard-response","76","85721","0.0-3.0-1.36","true"
"864","ImagesDirect/VR110.png","190","test",".","image-keyboard-response","78","87089","0.0-3.0-1.37","true"
"897","ImagesDirect/VR100.png","188","test",".","image-keyboard-response","80","88488","0.0-3.0-1.38","false"
"821","ImagesTennis/TL90.png","190","test",".","image-keyboard-response","82","89813","0.0-3.0-1.39","true"
"780","ImagesDirect/VL105.png","188","test",",","image-keyboard-response","84","91096","0.0-3.0-1.40","true"
"689","ImagesDirect/VR105.png","190","test",".","image-keyboard-response","86","92289","0.0-3.0-1.41","true"
"834","ImagesSoccer/VR97.5.png","190","test",",","image-keyboard-response","88","93627","0.0-3.0-1.42","false"
"1510","ImagesSoccer/VR92.5.png","190","test",",","image-keyboard-response","90","95640","0.0-3.0-1.43","false"
"963","ImagesSoccer/VR100.png","190","test",".","image-keyboard-response","92","97106","0.0-3.0-1.44","true"
"874","ImagesTennis/TL107.5.png","188","test",",","image-keyboard-response","94","98483","0.0-3.0-1.45","true"
"677","ImagesDirect/VR97.5.png","190","test",",","image-keyboard-response","96","99663","0.0-3.0-1.46","false"
"699","ImagesDirect/VL102.5.png","188","test",",","image-keyboard-response","98","100865","0.0-3.0-1.47","true"
"656","ImagesSoccer/VL100.png","188","test",".","image-keyboard-response","100","102024","0.0-3.0-1.48","false"
"789","ImagesDirect/VL90.png","190","test",".","image-keyboard-response","102","103317","0.0-3.0-1.49","true"
"829","ImagesTennis/TL102.5.png","188","test",",","image-keyboard-response","104","104649","0.0-3.0-1.50","true"
"910","ImagesTennis/TR97.5.png","188","test",",","image-keyboard-response","106","106062","0.0-3.0-1.51","true"
"1687","ImagesSoccer/VR90.png","190","test",",","image-keyboard-response","108","108252","0.0-3.0-1.52","false"
"771","ImagesTennis/TL110.png","188","test",",","image-keyboard-response","110","109527","0.0-3.0-1.53","true"
"1128","ImagesTennis/TL105.png","188","test",",","image-keyboard-response","112","111160","0.0-3.0-1.54","true"
"871","ImagesTennis/TR97.5.png","188","test",",","image-keyboard-response","114","112535","0.0-3.0-1.55","true"
"879","ImagesTennis/TL90.png","188","test",".","image-keyboard-response","116","113917","0.0-3.0-1.56","false"
"922","ImagesTennis/TL102.5.png","188","test",",","image-keyboard-response","118","115343","0.0-3.0-1.57","true"
"1456","ImagesDirect/VR110.png","190","test",".","image-keyboard-response","120","117302","0.0-3.0-1.58","true"
"583","ImagesTennis/TL110.png","188","test",",","image-keyboard-response","122","118388","0.0-3.0-1.59","true"
"940","ImagesTennis/TR95.png","190","test",",","image-keyboard-response","124","119831","0.0-3.0-1.60","false"
"902","ImagesSoccer/VR102.5.png","190","test",".","image-keyboard-response","126","121236","0.0-3.0-1.61","true"
"1723","ImagesTennis/TL97.5.png","190","test",".","image-keyboard-response","128","123462","0.0-3.0-1.62","true"
"39374","ImagesDirect/VL110.png","188","test",",","image-keyboard-response","130","163338","0.0-3.0-1.63","true"
"793","ImagesDirect/VR102.5.png","190","test",".","image-keyboard-response","132","164634","0.0-3.0-1.64","true"
"717","ImagesTennis/TR102.5.png","188","test",".","image-keyboard-response","134","165855","0.0-3.0-1.65","false"
"604","ImagesDirect/VL107.5.png","188","test",",","image-keyboard-response","136","166961","0.0-3.0-1.66","true"
"703","ImagesTennis/TR90.png","188","test",",","image-keyboard-response","138","168167","0.0-3.0-1.67","true"
"605","ImagesDirect/VL100.png","190","test",".","image-keyboard-response","140","169275","0.0-3.0-1.68","true"
"681","ImagesTennis/TL92.5.png","190","test",".","image-keyboard-response","142","170459","0.0-3.0-1.69","true"
"573","ImagesSoccer/VR100.png","188","test",".","image-keyboard-response","144","171534","0.0-3.0-1.70","false"
"1265","ImagesDirect/VR97.5.png","190","test",",","image-keyboard-response","146","173302","0.0-3.0-1.71","false"
"1135","ImagesDirect/VR100.png","190","test",".","image-keyboard-response","148","174940","0.0-3.0-1.72","true"
"542","ImagesDirect/VL97.5.png","188","test",".","image-keyboard-response","150","175985","0.0-3.0-1.73","false"
"565","ImagesSoccer/VR105.png","190","test",".","image-keyboard-response","152","177052","0.0-3.0-1.74","true"
"1237","ImagesTennis/TR105.png","190","test",".","image-keyboard-response","154","178792","0.0-3.0-1.75","true"
"850","ImagesSoccer/VL105.png","190","test",",","image-keyboard-response","156","180145","0.0-3.0-1.76","false"
"662","ImagesSoccer/VL90.png","190","test",".","image-keyboard-response","158","181310","0.0-3.0-1.77","true"
"657","ImagesDirect/VR105.png","190","test",".","image-keyboard-response","160","182470","0.0-3.0-1.78","true"
"1332","ImagesSoccer/VR95.png","190","test",",","image-keyboard-response","162","184305","0.0-3.0-1.79","false"
"605","ImagesTennis/TL107.5.png","188","test",",","image-keyboard-response","164","185412","0.0-3.0-1.80","true"
"713","ImagesSoccer/VL92.5.png","190","test",".","image-keyboard-response","166","186627","0.0-3.0-1.81","true"
"605","ImagesSoccer/VR110.png","190","test",".","image-keyboard-response","168","187735","0.0-3.0-1.82","true"
"1227","ImagesDirect/VR92.5.png","188","test",",","image-keyboard-response","170","189465","0.0-3.0-1.83","true"
"1962","ImagesTennis/TL100.png","190","test",".","image-keyboard-response","172","191931","0.0-3.0-1.84","true"
"712","ImagesDirect/VL90.png","190","test",".","image-keyboard-response","174","193145","0.0-3.0-1.85","true"
"1071","ImagesSoccer/VR107.5.png","190","test",".","image-keyboard-response","176","194718","0.0-3.0-1.86","true"
"1029","ImagesDirect/VR90.png","188","test",",","image-keyboard-response","178","196249","0.0-3.0-1.87","true"
"1970","ImagesDirect/VL92.5.png","190","test",".","image-keyboard-response","180","198722","0.0-3.0-1.88","true"
"702","ImagesDirect/VR107.5.png","190","test",".","image-keyboard-response","182","199927","0.0-3.0-1.89","true"
"1831","ImagesTennis/TR110.png","190","test",".","image-keyboard-response","184","202260","0.0-3.0-1.90","true"
"1063","ImagesTennis/TR107.5.png","188","test",".","image-keyboard-response","186","203826","0.0-3.0-1.91","false"
"578","ImagesTennis/TR92.5.png","188","test",",","image-keyboard-response","188","204907","0.0-3.0-1.92","true"
"862","ImagesSoccer/VL97.5.png","190","test",".","image-keyboard-response","190","206271","0.0-3.0-1.93","true"
"940","ImagesDirect/VL95.png","188","test",".","image-keyboard-response","192","207713","0.0-3.0-1.94","false"
"637","ImagesSoccer/VR97.5.png","190","test",",","image-keyboard-response","194","208854","0.0-3.0-1.95","false"
"979","ImagesSoccer/VR90.png","188","test",",","image-keyboard-response","196","210337","0.0-3.0-1.96","true"
"1212","ImagesTennis/TR100.png","188","test",".","image-keyboard-response","198","212051","0.0-3.0-1.97","false"
"727","ImagesSoccer/VL110.png","190","test",",","image-keyboard-response","200","213282","0.0-3.0-1.98","false"
"782","ImagesSoccer/VL107.5.png","190","test",",","image-keyboard-response","202","214566","0.0-3.0-1.99","false"
"796","ImagesDirect/VL105.png","188","test",",","image-keyboard-response","204","215866","0.0-3.0-1.100","true"
"704","ImagesSoccer/VR92.5.png","190","test",",","image-keyboard-response","206","217072","0.0-3.0-1.101","false"
"582","ImagesSoccer/VL100.png","190","test",".","image-keyboard-response","208","218157","0.0-3.0-1.102","true"
"706","ImagesSoccer/VL95.png","190","test",".","image-keyboard-response","210","219366","0.0-3.0-1.103","true"
"996","ImagesDirect/VR95.png","190","test",",","image-keyboard-response","212","220865","0.0-3.0-1.104","false"
"1427","ImagesDirect/VL102.5.png","188","test",",","image-keyboard-response","214","222795","0.0-3.0-1.105","true"
"666","ImagesTennis/TL95.png","190","test",".","image-keyboard-response","216","223964","0.0-3.0-1.106","true"
"1419","ImagesSoccer/VL102.5.png","188","test",",","image-keyboard-response","218","225886","0.0-3.0-1.107","true"
"2112","ImagesTennis/TL105.png","188","test",",","image-keyboard-response","220","228501","0.0-3.0-1.108","true"
"4316","ImagesDirect/VL97.5.png","188","test",".","image-keyboard-response","222","233320","0.0-3.0-1.109","false"
"679","ImagesTennis/TL90.png","190","test",".","image-keyboard-response","224","234503","0.0-3.0-1.110","true"
"667","ImagesTennis/TL97.5.png","190","test",".","image-keyboard-response","226","235673","0.0-3.0-1.111","true"
"994","ImagesTennis/TL100.png","190","test",".","image-keyboard-response","228","237169","0.0-3.0-1.112","true"
"603","ImagesSoccer/VR97.5.png","188","test",",","image-keyboard-response","230","238275","0.0-3.0-1.113","true"
"610","ImagesDirect/VL110.png","188","test",",","image-keyboard-response","232","239389","0.0-3.0-1.114","true"
"721","ImagesDirect/VL107.5.png","188","test",",","image-keyboard-response","234","240612","0.0-3.0-1.115","true"
"2006","ImagesDirect/VR105.png","190","test",".","image-keyboard-response","236","243121","0.0-3.0-1.116","true"
"981","ImagesDirect/VL102.5.png","188","test",",","image-keyboard-response","238","244605","0.0-3.0-1.117","true"
"786","ImagesSoccer/VL95.png","190","test",".","image-keyboard-response","240","245894","0.0-3.0-1.118","true"
"3025","ImagesDirect/VR90.png","188","test",",","image-keyboard-response","242","249422","0.0-3.0-1.119","true"
"1306","ImagesSoccer/VR92.5.png","188","test",",","image-keyboard-response","244","251231","0.0-3.0-1.120","true"
"677","ImagesTennis/TL92.5.png","190","test",".","image-keyboard-response","246","252411","0.0-3.0-1.121","true"
"561","ImagesSoccer/VR90.png","188","test",",","image-keyboard-response","248","253476","0.0-3.0-1.122","true"
"657","ImagesDirect/VL105.png","188","test",",","image-keyboard-response","250","254636","0.0-3.0-1.123","true"
"641","ImagesSoccer/VR105.png","190","test",".","image-keyboard-response","252","255779","0.0-3.0-1.124","true"
"552","ImagesTennis/TR102.5.png","188","test",".","image-keyboard-response","254","256833","0.0-3.0-1.125","false"
"1617","ImagesSoccer/VR100.png","190","test",".","image-keyboard-response","256","258953","0.0-3.0-1.126","true"
"592","ImagesDirect/VR110.png","190","test",".","image-keyboard-response","258","260048","0.0-3.0-1.127","true"
"634","ImagesDirect/VR97.5.png","188","test",",","image-keyboard-response","260","261185","0.0-3.0-1.128","true"
"867","ImagesSoccer/VL105.png","188","test",",","image-keyboard-response","262","262554","0.0-3.0-1.129","true"
"601","ImagesDirect/VR100.png","190","test",".","image-keyboard-response","264","263658","0.0-3.0-1.130","true"
"1411","ImagesSoccer/VR110.png","190","test",".","image-keyboard-response","266","265572","0.0-3.0-1.131","true"
"788","ImagesTennis/TL110.png","188","test",",","image-keyboard-response","268","266863","0.0-3.0-1.132","true"
"916","ImagesDirect/VR95.png","188","test",",","image-keyboard-response","270","268282","0.0-3.0-1.133","true"
"728","ImagesSoccer/VR95.png","188","test",",","image-keyboard-response","272","269514","0.0-3.0-1.134","true"
"512","ImagesTennis/TR90.png","188","test",",","image-keyboard-response","274","270529","0.0-3.0-1.135","true"
"892","ImagesTennis/TL102.5.png","190","test",",","image-keyboard-response","276","271925","0.0-3.0-1.136","false"
"1483","ImagesDirect/VR92.5.png","190","test",",","image-keyboard-response","278","273911","0.0-3.0-1.137","false"
"569","ImagesDirect/VL90.png","190","test",".","image-keyboard-response","280","274983","0.0-3.0-1.138","true"
"552","ImagesTennis/TR100.png","188","test",".","image-keyboard-response","282","276038","0.0-3.0-1.139","false"
"741","ImagesSoccer/VL110.png","188","test",",","image-keyboard-response","284","277282","0.0-3.0-1.140","true"
"638","ImagesSoccer/VL92.5.png","190","test",".","image-keyboard-response","286","278422","0.0-3.0-1.141","true"
"678","ImagesSoccer/VR102.5.png","188","test",".","image-keyboard-response","288","279603","0.0-3.0-1.142","false"
"876","ImagesSoccer/VL97.5.png","188","test",".","image-keyboard-response","290","280982","0.0-3.0-1.143","false"
"773","ImagesSoccer/VL107.5.png","188","test",",","image-keyboard-response","292","282258","0.0-3.0-1.144","true"
"1114","ImagesDirect/VL95.png","188","test",".","image-keyboard-response","294","283875","0.0-3.0-1.145","false"
"832","ImagesTennis/TL95.png","190","test",".","image-keyboard-response","296","285210","0.0-3.0-1.146","true"
"577","ImagesSoccer/VL100.png","188","test",".","image-keyboard-response","298","286290","0.0-3.0-1.147","false"
"656","ImagesSoccer/VR107.5.png","190","test",".","image-keyboard-response","300","287449","0.0-3.0-1.148","true"
"790","ImagesDirect/VR107.5.png","190","test",".","image-keyboard-response","302","288742","0.0-3.0-1.149","true"
"512","ImagesTennis/TR95.png","188","test",",","image-keyboard-response","304","289757","0.0-3.0-1.150","true"
"649","ImagesSoccer/VL90.png","190","test",".","image-keyboard-response","306","290909","0.0-3.0-1.151","true"
"534","ImagesDirect/VL100.png","188","test",".","image-keyboard-response","308","291946","0.0-3.0-1.152","false"
"511","ImagesTennis/TR110.png","190","test",".","image-keyboard-response","310","292961","0.0-3.0-1.153","true"
"660","ImagesTennis/TR92.5.png","190","test",",","image-keyboard-response","312","294123","0.0-3.0-1.154","false"
"708","ImagesTennis/TR97.5.png","188","test",",","image-keyboard-response","314","295335","0.0-3.0-1.155","true"
"1006","ImagesTennis/TR105.png","188","test",".","image-keyboard-response","316","296844","0.0-3.0-1.156","false"
"614","ImagesDirect/VR102.5.png","190","test",".","image-keyboard-response","318","297961","0.0-3.0-1.157","true"
"673","ImagesTennis/TL107.5.png","188","test",",","image-keyboard-response","320","299136","0.0-3.0-1.158","true"
"541","ImagesSoccer/VL102.5.png","188","test",",","image-keyboard-response","322","300180","0.0-3.0-1.159","true"
"1369","ImagesDirect/VL92.5.png","188","test",".","image-keyboard-response","324","302052","0.0-3.0-1.160","false"
"2626","ImagesTennis/TR107.5.png","190","test",".","image-keyboard-response","326","305181","0.0-3.0-1.161","true"
"780","ImagesDirect/VR107.5.png","190","test",".","image-keyboard-response","328","306463","0.0-3.0-1.162","true"
"2946","ImagesDirect/VR95.png","190","test",",","image-keyboard-response","330","309911","0.0-3.0-1.163","false"
"1359","ImagesSoccer/VL97.5.png","188","test",".","image-keyboard-response","332","311772","0.0-3.0-1.164","false"
"599","ImagesSoccer/VL107.5.png","188","test",",","image-keyboard-response","334","312875","0.0-3.0-1.165","true"
"980","ImagesDirect/VL92.5.png","188","test",".","image-keyboard-response","336","314358","0.0-3.0-1.166","false"
"1514","ImagesDirect/VR90.png","188","test",",","image-keyboard-response","338","316375","0.0-3.0-1.167","true"
"1268","ImagesTennis/TR107.5.png","190","test",".","image-keyboard-response","340","318146","0.0-3.0-1.168","true"
"3487","ImagesDirect/VL90.png","190","test",".","image-keyboard-response","342","322135","0.0-3.0-1.169","true"
"1076","ImagesTennis/TL92.5.png","190","test",".","image-keyboard-response","344","323714","0.0-3.0-1.170","true"
"1216","ImagesSoccer/VR107.5.png","190","test",".","image-keyboard-response","346","325433","0.0-3.0-1.171","true"
"741","ImagesTennis/TL105.png","188","test",",","image-keyboard-response","348","326677","0.0-3.0-1.172","true"
"1263","ImagesTennis/TL97.5.png","190","test",".","image-keyboard-response","350","328442","0.0-3.0-1.173","true"
"1378","ImagesSoccer/VL90.png","190","test",".","image-keyboard-response","352","330322","0.0-3.0-1.174","true"
"1004","ImagesDirect/VL97.5.png","188","test",".","image-keyboard-response","354","331829","0.0-3.0-1.175","false"
"751","ImagesSoccer/VR90.png","188","test",",","image-keyboard-response","356","333083","0.0-3.0-1.176","true"
"752","ImagesSoccer/VL102.5.png","188","test",",","image-keyboard-response","358","334337","0.0-3.0-1.177","true"
"909","ImagesTennis/TL100.png","190","test",".","image-keyboard-response","360","335749","0.0-3.0-1.178","true"
"1035","ImagesTennis/TR105.png","188","test",".","image-keyboard-response","362","337287","0.0-3.0-1.179","false"
"682","ImagesDirect/VL100.png","188","test",".","image-keyboard-response","364","338471","0.0-3.0-1.180","false"
"2712","ImagesSoccer/VR102.5.png","190","test",".","image-keyboard-response","366","341686","0.0-3.0-1.181","true"
"2145","ImagesSoccer/VR110.png","190","test",".","image-keyboard-response","368","344334","0.0-3.0-1.182","true"
"1046","ImagesTennis/TL95.png","190","test",".","image-keyboard-response","370","345883","0.0-3.0-1.183","true"
"960","ImagesDirect/VL105.png","188","test",",","image-keyboard-response","372","347346","0.0-3.0-1.184","true"
"745","ImagesDirect/VR110.png","190","test",".","image-keyboard-response","374","348593","0.0-3.0-1.185","true"
"620","ImagesTennis/TL110.png","188","test",",","image-keyboard-response","376","349716","0.0-3.0-1.186","true"
"1594","ImagesDirect/VR97.5.png","190","test",",","image-keyboard-response","378","351813","0.0-3.0-1.187","false"
"1428","ImagesDirect/VL95.png","190","test",".","image-keyboard-response","380","353745","0.0-3.0-1.188","true"
"686","ImagesSoccer/VR95.png","188","test",",","image-keyboard-response","382","354933","0.0-3.0-1.189","true"
"1206","ImagesDirect/VR100.png","190","test",".","image-keyboard-response","384","356641","0.0-3.0-1.190","true"
"648","ImagesSoccer/VL110.png","188","test",",","image-keyboard-response","386","357793","0.0-3.0-1.191","true"
"644","ImagesSoccer/VL92.5.png","190","test",".","image-keyboard-response","388","358939","0.0-3.0-1.192","true"
"647","ImagesSoccer/VL105.png","188","test",",","image-keyboard-response","390","360089","0.0-3.0-1.193","true"
"623","ImagesDirect/VL102.5.png","188","test",",","image-keyboard-response","392","361214","0.0-3.0-1.194","true"
"642","ImagesTennis/TL90.png","190","test",".","image-keyboard-response","394","362358","0.0-3.0-1.195","true"
"500","ImagesSoccer/VL100.png","188","test",".","image-keyboard-response","396","363360","0.0-3.0-1.196","false"
"946","ImagesDirect/VR102.5.png","190","test",".","image-keyboard-response","398","364809","0.0-3.0-1.197","true"
"514","ImagesTennis/TR90.png","188","test",",","image-keyboard-response","400","365826","0.0-3.0-1.198","true"
"577","ImagesTennis/TR92.5.png","188","test",",","image-keyboard-response","402","366906","0.0-3.0-1.199","true"
"922","ImagesDirect/VR92.5.png","188","test",",","image-keyboard-response","404","368330","0.0-3.0-1.200","true"
"1395","ImagesSoccer/VR105.png","190","test",".","image-keyboard-response","406","370228","0.0-3.0-1.201","true"
"990","ImagesTennis/TL102.5.png","188","test",",","image-keyboard-response","408","371721","0.0-3.0-1.202","true"
"637","ImagesSoccer/VL95.png","188","test",".","image-keyboard-response","410","372860","0.0-3.0-1.203","false"
"1257","ImagesSoccer/VR97.5.png","188","test",",","image-keyboard-response","412","374619","0.0-3.0-1.204","true"
"504","ImagesTennis/TR97.5.png","188","test",",","image-keyboard-response","414","375626","0.0-3.0-1.205","true"
"471","ImagesTennis/TR95.png","188","test",",","image-keyboard-response","416","376599","0.0-3.0-1.206","true"
"462","ImagesTennis/TR110.png","188","test",".","image-keyboard-response","418","377563","0.0-3.0-1.207","false"
"408","ImagesTennis/TR102.5.png","188","test",".","image-keyboard-response","420","378473","0.0-3.0-1.208","false"
"1349","ImagesTennis/TL107.5.png","188","test",",","image-keyboard-response","422","380325","0.0-3.0-1.209","true"
"738","ImagesSoccer/VR92.5.png","188","test",",","image-keyboard-response","424","381565","0.0-3.0-1.210","true"
"596","ImagesDirect/VL107.5.png","188","test",",","image-keyboard-response","426","382664","0.0-3.0-1.211","true"
"684","ImagesTennis/TR100.png","188","test",".","image-keyboard-response","428","383851","0.0-3.0-1.212","false"
"735","ImagesSoccer/VR100.png","188","test",".","image-keyboard-response","430","385090","0.0-3.0-1.213","false"
"555","ImagesDirect/VL110.png","188","test",",","image-keyboard-response","432","386147","0.0-3.0-1.214","true"
"563","ImagesDirect/VR105.png","190","test",".","image-keyboard-response","434","387213","0.0-3.0-1.215","true"
"631","ImagesTennis/TR90.png","188","test",",","image-keyboard-response","436","388346","0.0-3.0-1.216","true"
"921","ImagesTennis/TL100.png","190","test",".","image-keyboard-response","438","389770","0.0-3.0-1.217","true"
"616","ImagesDirect/VR95.png","188","test",",","image-keyboard-response","440","390887","0.0-3.0-1.218","true"
"588","ImagesTennis/TR110.png","190","test",".","image-keyboard-response","442","391977","0.0-3.0-1.219","true"
"764","ImagesDirect/VL105.png","188","test",",","image-keyboard-response","444","393243","0.0-3.0-1.220","true"
"830","ImagesSoccer/VL95.png","188","test",".","image-keyboard-response","446","394576","0.0-3.0-1.221","false"
"1256","ImagesSoccer/VR95.png","188","test",",","image-keyboard-response","448","396334","0.0-3.0-1.222","true"
"1014","ImagesTennis/TL102.5.png","188","test",",","image-keyboard-response","450","397851","0.0-3.0-1.223","true"
"706","ImagesSoccer/VR105.png","188","test",".","image-keyboard-response","452","399060","0.0-3.0-1.224","false"
"704","ImagesDirect/VL90.png","190","test",".","image-keyboard-response","454","400266","0.0-3.0-1.225","true"
"656","ImagesTennis/TL95.png","188","test",".","image-keyboard-response","456","401425","0.0-3.0-1.226","false"
"667","ImagesDirect/VR107.5.png","190","test",".","image-keyboard-response","458","402594","0.0-3.0-1.227","true"
"729","ImagesSoccer/VL100.png","188","test",".","image-keyboard-response","460","403826","0.0-3.0-1.228","false"
"612","ImagesSoccer/VL110.png","188","test",",","image-keyboard-response","462","404940","0.0-3.0-1.229","true"
"579","ImagesSoccer/VL105.png","188","test",",","image-keyboard-response","464","406022","0.0-3.0-1.230","true"
"870","ImagesTennis/TL110.png","188","test",",","image-keyboard-response","466","407393","0.0-3.0-1.231","true"
"979","ImagesDirect/VR97.5.png","188","test",",","image-keyboard-response","468","408873","0.0-3.0-1.232","true"
"1361","ImagesTennis/TR107.5.png","190","test",".","image-keyboard-response","470","410737","0.0-3.0-1.233","true"
"676","ImagesDirect/VR90.png","188","test",",","image-keyboard-response","472","411916","0.0-3.0-1.234","true"
"1212","ImagesTennis/TR97.5.png","188","test",",","image-keyboard-response","474","413631","0.0-3.0-1.235","true"
"679","ImagesDirect/VR110.png","190","test",".","image-keyboard-response","476","414813","0.0-3.0-1.236","true"
"1045","ImagesSoccer/VL102.5.png","188","test",",","image-keyboard-response","478","416361","0.0-3.0-1.237","true"
"2129","ImagesTennis/TL107.5.png","188","test",",","image-keyboard-response","480","418992","0.0-3.0-1.238","true"
"714","ImagesTennis/TR100.png","188","test",".","image-keyboard-response","482","420210","0.0-3.0-1.239","false"
"887","ImagesSoccer/VR102.5.png","190","test",".","image-keyboard-response","484","421599","0.0-3.0-1.240","true"
"644","ImagesDirect/VL110.png","188","test",",","image-keyboard-response","486","422746","0.0-3.0-1.241","true"
"741","ImagesDirect/VL107.5.png","188","test",",","image-keyboard-response","488","423990","0.0-3.0-1.242","true"
"810","ImagesSoccer/VR90.png","190","test",",","image-keyboard-response","490","425303","0.0-3.0-1.243","false"
"741","ImagesTennis/TL90.png","190","test",".","image-keyboard-response","492","426547","0.0-3.0-1.244","true"
"643","ImagesDirect/VL95.png","188","test",".","image-keyboard-response","494","427692","0.0-3.0-1.245","false"
"5053","ImagesTennis/TL105.png","188","test",",","image-keyboard-response","496","433248","0.0-3.0-1.246","true"
"645","ImagesTennis/TL92.5.png","190","test",".","image-keyboard-response","498","434395","0.0-3.0-1.247","true"
"662","ImagesTennis/TR92.5.png","188","test",",","image-keyboard-response","500","435559","0.0-3.0-1.248","true"
"603","ImagesTennis/TR102.5.png","188","test",".","image-keyboard-response","502","436664","0.0-3.0-1.249","false"
"813","ImagesSoccer/VR110.png","190","test",".","image-keyboard-response","504","437979","0.0-3.0-1.250","true"
"2324","ImagesSoccer/VL97.5.png","188","test",".","image-keyboard-response","506","440805","0.0-3.0-1.251","false"
"1008","ImagesDirect/VL102.5.png","188","test",",","image-keyboard-response","508","442317","0.0-3.0-1.252","true"
"790","ImagesDirect/VR100.png","190","test",".","image-keyboard-response","510","443610","0.0-3.0-1.253","true"
"710","ImagesSoccer/VL107.5.png","188","test",",","image-keyboard-response","512","444824","0.0-3.0-1.254","true"
"1816","ImagesDirect/VL92.5.png","188","test",".","image-keyboard-response","514","447142","0.0-3.0-1.255","false"
"651","ImagesSoccer/VR100.png","190","test",".","image-keyboard-response","516","448296","0.0-3.0-1.256","true"
"638","ImagesSoccer/VR107.5.png","190","test",".","image-keyboard-response","518","449437","0.0-3.0-1.257","true"
"877","ImagesSoccer/VR97.5.png","190","test",",","image-keyboard-response","520","450816","0.0-3.0-1.258","false"
"895","ImagesDirect/VL97.5.png","190","test",".","image-keyboard-response","522","452214","0.0-3.0-1.259","true"
"604","ImagesTennis/TR95.png","188","test",",","image-keyboard-response","524","453321","0.0-3.0-1.260","true"
"839","ImagesTennis/TL97.5.png","190","test",".","image-keyboard-response","526","454663","0.0-3.0-1.261","true"
"688","ImagesDirect/VR105.png","190","test",".","image-keyboard-response","528","455854","0.0-3.0-1.262","true"
"639","ImagesDirect/VL100.png","188","test",".","image-keyboard-response","530","456995","0.0-3.0-1.263","false"
"859","ImagesSoccer/VL90.png","190","test",".","image-keyboard-response","532","458357","0.0-3.0-1.264","true"
"780","ImagesSoccer/VL92.5.png","188","test",".","image-keyboard-response","534","459640","0.0-3.0-1.265","false"
"713","ImagesTennis/TR105.png","188","test",".","image-keyboard-response","536","460855","0.0-3.0-1.266","false"
"643","ImagesDirect/VR92.5.png","190","test",",","image-keyboard-response","538","462001","0.0-3.0-1.267","false"
"529","ImagesSoccer/VR92.5.png","188","test",",","image-keyboard-response","540","463032","0.0-3.0-1.268","true"
"744","ImagesDirect/VR102.5.png","188","test",".","image-keyboard-response","542","464280","0.0-3.0-1.269","false"
"114457","ImagesCoins/10L100.png","188","test",".","image-keyboard-response","544","579239","0.0-4.0-1.0","false"
"781","ImagesCoins/10R92.5.png","188","test",",","image-keyboard-response","546","580524","0.0-4.0-1.1","true"
"703","ImagesCoins/10L92.5.png","190","test",".","image-keyboard-response","548","581731","0.0-4.0-1.2","true"
"1429","ImagesCoins/10R105.png","190","test",".","image-keyboard-response","550","583663","0.0-4.0-1.3","true"
"821","ImagesCoins/10R102.5.png","190","test",".","image-keyboard-response","552","584987","0.0-4.0-1.4","true"
"597","ImagesCoins/10L107.5.png","188","test",",","image-keyboard-response","554","586087","0.0-4.0-1.5","true"
"710","ImagesCoins/10L97.5.png","188","test",".","image-keyboard-response","556","587300","0.0-4.0-1.6","false"
"666","ImagesCoins/10R107.5.png","190","test",".","image-keyboard-response","558","588469","0.0-4.0-1.7","true"
"1322","ImagesCoins/10R97.5.png","188","test",",","image-keyboard-response","560","590294","0.0-4.0-1.8","true"
"643","ImagesCoins/10L110.png","188","test",",","image-keyboard-response","562","591440","0.0-4.0-1.9","true"
"660","ImagesCoins/10L90.png","190","test",".","image-keyboard-response","564","592603","0.0-4.0-1.10","true"
"617","ImagesCoins/10R95.png","188","test",",","image-keyboard-response","566","593723","0.0-4.0-1.11","true"
"683","ImagesCoins/10R90.png","188","test",",","image-keyboard-response","568","594909","0.0-4.0-1.12","true"
"634","ImagesCoins/10L95.png","190","test",".","image-keyboard-response","570","596046","0.0-4.0-1.13","true"
"746","ImagesCoins/10R110.png","190","test",".","image-keyboard-response","572","597295","0.0-4.0-1.14","true"
"637","ImagesCoins/10R100.png","188","test",".","image-keyboard-response","574","598436","0.0-4.0-1.15","false"
"662","ImagesCoins/10L105.png","188","test",",","image-keyboard-response","576","599600","0.0-4.0-1.16","true"
"654","ImagesCoins/10L102.5.png","188","test",",","image-keyboard-response","578","600757","0.0-4.0-1.17","true"
"914","ImagesCoins/10R102.5.png","190","test",".","image-keyboard-response","580","602175","0.0-4.0-1.18","true"
"531","ImagesCoins/10L90.png","188","test",".","image-keyboard-response","582","603208","0.0-4.0-1.19","false"
"572","ImagesCoins/10L102.5.png","188","test",",","image-keyboard-response","584","604284","0.0-4.0-1.20","true"
"505","ImagesCoins/10L100.png","188","test",".","image-keyboard-response","586","605291","0.0-4.0-1.21","false"
"769","ImagesCoins/10L92.5.png","190","test",".","image-keyboard-response","588","606563","0.0-4.0-1.22","true"
"925","ImagesCoins/10R105.png","190","test",".","image-keyboard-response","590","607991","0.0-4.0-1.23","true"
"3298","ImagesCoins/10L97.5.png","190","test",".","image-keyboard-response","592","611792","0.0-4.0-1.24","true"
"802","ImagesCoins/10R110.png","190","test",".","image-keyboard-response","594","613097","0.0-4.0-1.25","true"
"797","ImagesCoins/10R92.5.png","188","test",",","image-keyboard-response","596","614397","0.0-4.0-1.26","true"
"545","ImagesCoins/10L110.png","188","test",",","image-keyboard-response","598","615445","0.0-4.0-1.27","true"
"572","ImagesCoins/10L105.png","188","test",",","image-keyboard-response","600","616520","0.0-4.0-1.28","true"
"888","ImagesCoins/10R100.png","190","test",".","image-keyboard-response","602","617911","0.0-4.0-1.29","true"
"548","ImagesCoins/10R90.png","188","test",",","image-keyboard-response","604","618962","0.0-4.0-1.30","true"
"1335","ImagesCoins/10L95.png","190","test",".","image-keyboard-response","606","620800","0.0-4.0-1.31","true"
"591","ImagesCoins/10L107.5.png","188","test",",","image-keyboard-response","608","621893","0.0-4.0-1.32","true"
"610","ImagesCoins/10R97.5.png","188","test",",","image-keyboard-response","610","623005","0.0-4.0-1.33","true"
"525","ImagesCoins/10R95.png","188","test",",","image-keyboard-response","612","624033","0.0-4.0-1.34","true"
"534","ImagesCoins/10R107.5.png","188","test",".","image-keyboard-response","614","625070","0.0-4.0-1.35","false"
"586","ImagesCoins/10L105.png","188","test",",","image-keyboard-response","616","626158","0.0-4.0-1.36","true"
"542","ImagesCoins/10R92.5.png","188","test",",","image-keyboard-response","618","627203","0.0-4.0-1.37","true"
"518","ImagesCoins/10L110.png","188","test",",","image-keyboard-response","620","628224","0.0-4.0-1.38","true"
"1804","ImagesCoins/10R100.png","190","test",".","image-keyboard-response","622","630531","0.0-4.0-1.39","true"
"1124","ImagesCoins/10R107.5.png","190","test",".","image-keyboard-response","624","632157","0.0-4.0-1.40","true"
"780","ImagesCoins/10L92.5.png","190","test",".","image-keyboard-response","626","633440","0.0-4.0-1.41","true"
"782","ImagesCoins/10L102.5.png","188","test",",","image-keyboard-response","628","634725","0.0-4.0-1.42","true"
"883","ImagesCoins/10L90.png","190","test",".","image-keyboard-response","630","636110","0.0-4.0-1.43","true"
"765","ImagesCoins/10L107.5.png","188","test",",","image-keyboard-response","632","637378","0.0-4.0-1.44","true"
"1726","ImagesCoins/10R90.png","188","test",",","image-keyboard-response","634","639607","0.0-4.0-1.45","true"
"803","ImagesCoins/10R110.png","190","test",".","image-keyboard-response","636","640913","0.0-4.0-1.46","true"
"1185","ImagesCoins/10R97.5.png","190","test",",","image-keyboard-response","638","642601","0.0-4.0-1.47","false"
"674","ImagesCoins/10R95.png","188","test",",","image-keyboard-response","640","643778","0.0-4.0-1.48","true"
"1758","ImagesCoins/10L95.png","188","test",".","image-keyboard-response","642","646038","0.0-4.0-1.49","false"
"816","ImagesCoins/10R105.png","190","test",".","image-keyboard-response","644","647359","0.0-4.0-1.50","true"
"843","ImagesCoins/10L100.png","188","test",".","image-keyboard-response","646","648704","0.0-4.0-1.51","false"
"1509","ImagesCoins/10R102.5.png","190","test",".","image-keyboard-response","648","650716","0.0-4.0-1.52","true"
"1392","ImagesCoins/10L97.5.png","190","test",".","image-keyboard-response","650","652611","0.0-4.0-1.53","true"
"841","ImagesCoins/10R107.5.png","190","test",".","image-keyboard-response","652","653955","0.0-4.0-1.54","true"
"1510","ImagesCoins/10L90.png","190","test",".","image-keyboard-response","654","655967","0.0-4.0-1.55","true"
"2164","ImagesCoins/10L100.png","190","test",".","image-keyboard-response","656","658634","0.0-4.0-1.56","true"
"2135","ImagesCoins/10L105.png","190","test",",","image-keyboard-response","658","661273","0.0-4.0-1.57","false"
"941","ImagesCoins/10L107.5.png","188","test",",","image-keyboard-response","660","662717","0.0-4.0-1.58","true"
"1115","ImagesCoins/10R92.5.png","188","test",",","image-keyboard-response","662","664334","0.0-4.0-1.59","true"
"779","ImagesCoins/10R105.png","190","test",".","image-keyboard-response","664","665617","0.0-4.0-1.60","true"
"1843","ImagesCoins/10R95.png","188","test",",","image-keyboard-response","666","667964","0.0-4.0-1.61","true"
"2019","ImagesCoins/10R97.5.png","190","test",",","image-keyboard-response","668","670485","0.0-4.0-1.62","false"
"2648","ImagesCoins/10R90.png","188","test",",","image-keyboard-response","670","673637","0.0-4.0-1.63","true"
"943","ImagesCoins/10R100.png","190","test",".","image-keyboard-response","672","675082","0.0-4.0-1.64","true"
"713","ImagesCoins/10R110.png","190","test",".","image-keyboard-response","674","676298","0.0-4.0-1.65","true"
"586","ImagesCoins/10R102.5.png","190","test",".","image-keyboard-response","676","677388","0.0-4.0-1.66","true"
"651","ImagesCoins/10L102.5.png","190","test",",","image-keyboard-response","678","678541","0.0-4.0-1.67","false"
"966","ImagesCoins/10L110.png","188","test",",","image-keyboard-response","680","680010","0.0-4.0-1.68","true"
"626","ImagesCoins/10L92.5.png","190","test",".","image-keyboard-response","682","681139","0.0-4.0-1.69","true"
"910","ImagesCoins/10L95.png","188","test",".","image-keyboard-response","684","682552","0.0-4.0-1.70","false"
"628","ImagesCoins/10L97.5.png","188","test",".","image-keyboard-response","686","683683","0.0-4.0-1.71","false"
"977","ImagesCoins/10L95.png","188","test",".","image-keyboard-response","688","685162","0.0-4.0-1.72","false"
"1096","ImagesCoins/10R102.5.png","190","test",".","image-keyboard-response","690","686759","0.0-4.0-1.73","true"
"961","ImagesCoins/10R92.5.png","188","test",",","image-keyboard-response","692","688223","0.0-4.0-1.74","true"
"718","ImagesCoins/10R90.png","188","test",",","image-keyboard-response","694","689445","0.0-4.0-1.75","true"
"711","ImagesCoins/10R105.png","190","test",".","image-keyboard-response","696","690657","0.0-4.0-1.76","true"
"912","ImagesCoins/10L105.png","188","test",",","image-keyboard-response","698","692074","0.0-4.0-1.77","true"
"805","ImagesCoins/10L110.png","188","test",",","image-keyboard-response","700","693384","0.0-4.0-1.78","true"
"762","ImagesCoins/10L102.5.png","188","test",",","image-keyboard-response","702","694649","0.0-4.0-1.79","true"
"906","ImagesCoins/10L92.5.png","190","test",".","image-keyboard-response","704","696059","0.0-4.0-1.80","true"
"713","ImagesCoins/10L100.png","188","test",".","image-keyboard-response","706","697274","0.0-4.0-1.81","false"
"721","ImagesCoins/10R107.5.png","190","test",".","image-keyboard-response","708","698499","0.0-4.0-1.82","true"
"985","ImagesCoins/10R95.png","188","test",",","image-keyboard-response","710","699987","0.0-4.0-1.83","true"
"703","ImagesCoins/10R100.png","188","test",".","image-keyboard-response","712","701193","0.0-4.0-1.84","false"
"738","ImagesCoins/10L90.png","188","test",".","image-keyboard-response","714","702434","0.0-4.0-1.85","false"
"678","ImagesCoins/10R97.5.png","188","test",",","image-keyboard-response","716","703615","0.0-4.0-1.86","true"
"553","ImagesCoins/10L97.5.png","190","test",".","image-keyboard-response","718","704671","0.0-4.0-1.87","true"
"701","ImagesCoins/10L107.5.png","188","test",",","image-keyboard-response","720","705876","0.0-4.0-1.88","true"
"1114","ImagesCoins/10R110.png","190","test",".","image-keyboard-response","722","707492","0.0-4.0-1.89","true"
