"rt","stimulus","key_press","test_part","correct_response","trial_type","trial_index","time_elapsed","internal_node_id","correct"
"2206","ImagesTennis/TR95.png","188","test",",","image-keyboard-response","4","33157","0.0-3.0-1.0","true"
"976","ImagesSoccer/VR105.png","190","test",".","image-keyboard-response","6","34636","0.0-3.0-1.1","true"
"1329","ImagesSoccer/VR97.5.png","190","test",",","image-keyboard-response","8","36468","0.0-3.0-1.2","false"
"1817","ImagesTennis/TL97.5.png","190","test",".","image-keyboard-response","10","38789","0.0-3.0-1.3","true"
"1841","ImagesDirect/VL92.5.png","190","test",".","image-keyboard-response","12","41133","0.0-3.0-1.4","true"
"1529","ImagesSoccer/VR102.5.png","190","test",".","image-keyboard-response","14","43165","0.0-3.0-1.5","true"
"1785","ImagesSoccer/VR90.png","188","test",",","image-keyboard-response","16","45453","0.0-3.0-1.6","true"
"1393","ImagesDirect/VR90.png","188","test",",","image-keyboard-response","18","47349","0.0-3.0-1.7","true"
"1089","ImagesDirect/VL105.png","188","test",",","image-keyboard-response","20","48941","0.0-3.0-1.8","true"
"1375","ImagesSoccer/VR92.5.png","188","test",",","image-keyboard-response","22","50821","0.0-3.0-1.9","true"
"2205","ImagesDirect/VL97.5.png","190","test",".","image-keyboard-response","24","53534","0.0-3.0-1.10","true"
"2329","ImagesDirect/VL95.png","188","test",".","image-keyboard-response","26","56366","0.0-3.0-1.11","false"
"1160","ImagesTennis/TR110.png","190","test",".","image-keyboard-response","28","58030","0.0-3.0-1.12","true"
"2050","ImagesSoccer/VR107.5.png","190","test",".","image-keyboard-response","30","60582","0.0-3.0-1.13","true"
"1337","ImagesTennis/TL90.png","190","test",".","image-keyboard-response","32","62422","0.0-3.0-1.14","true"
"2361","ImagesDirect/VL100.png","188","test",".","image-keyboard-response","34","65286","0.0-3.0-1.15","false"
"1337","ImagesSoccer/VL107.5.png","188","test",",","image-keyboard-response","36","67126","0.0-3.0-1.16","true"
"2082","ImagesTennis/TL102.5.png","190","test",",","image-keyboard-response","38","69710","0.0-3.0-1.17","false"
"2322","ImagesSoccer/VL102.5.png","188","test",",","image-keyboard-response","40","72534","0.0-3.0-1.18","true"
"7597","ImagesSoccer/VL90.png","190","test",".","image-keyboard-response","42","80634","0.0-3.0-1.19","true"
"3474","ImagesSoccer/VL92.5.png","190","test",".","image-keyboard-response","44","84611","0.0-3.0-1.20","true"
"1025","ImagesTennis/TL92.5.png","190","test",".","image-keyboard-response","46","86139","0.0-3.0-1.21","true"
"889","ImagesDirect/VR100.png","190","test",".","image-keyboard-response","48","87531","0.0-3.0-1.22","true"
"634","ImagesSoccer/VL100.png","188","test",".","image-keyboard-response","50","88667","0.0-3.0-1.23","false"
"1161","ImagesSoccer/VR100.png","190","test",".","image-keyboard-response","52","90331","0.0-3.0-1.24","true"
"970","ImagesDirect/VL110.png","188","test",",","image-keyboard-response","54","91803","0.0-3.0-1.25","true"
"1649","ImagesDirect/VR97.5.png","188","test",",","image-keyboard-response","56","93956","0.0-3.0-1.26","true"
"3794","ImagesTennis/TR92.5.png","188","test",",","image-keyboard-response","58","98252","0.0-3.0-1.27","true"
"1650","ImagesDirect/VL102.5.png","188","test",",","image-keyboard-response","60","100404","0.0-3.0-1.28","true"
"673","ImagesDirect/VR95.png","190","test",",","image-keyboard-response","62","101580","0.0-3.0-1.29","false"
"801","ImagesDirect/VL107.5.png","188","test",",","image-keyboard-response","64","102884","0.0-3.0-1.30","true"
"1257","ImagesTennis/TL107.5.png","188","test",",","image-keyboard-response","66","104644","0.0-3.0-1.31","true"
"2753","ImagesSoccer/VL95.png","190","test",".","image-keyboard-response","68","107901","0.0-3.0-1.32","true"
"890","ImagesTennis/TR102.5.png","190","test",".","image-keyboard-response","70","109293","0.0-3.0-1.33","true"
"816","ImagesSoccer/VL97.5.png","188","test",".","image-keyboard-response","72","110613","0.0-3.0-1.34","false"
"1594","ImagesTennis/TR97.5.png","190","test",",","image-keyboard-response","74","112709","0.0-3.0-1.35","false"
"1345","ImagesTennis/TL100.png","190","test",".","image-keyboard-response","76","114557","0.0-3.0-1.36","true"
"689","ImagesDirect/VR110.png","190","test",".","image-keyboard-response","78","115749","0.0-3.0-1.37","true"
"785","ImagesTennis/TL110.png","188","test",",","image-keyboard-response","80","117037","0.0-3.0-1.38","true"
"2290","ImagesTennis/TL105.png","190","test",",","image-keyboard-response","82","119830","0.0-3.0-1.39","false"
"1920","ImagesDirect/VL90.png","190","test",".","image-keyboard-response","84","122253","0.0-3.0-1.40","true"
"3266","ImagesDirect/VR92.5.png","190","test",",","image-keyboard-response","86","126022","0.0-3.0-1.41","false"
"2871","ImagesTennis/TL95.png","190","test",".","image-keyboard-response","88","129396","0.0-3.0-1.42","true"
"1890","ImagesTennis/TR100.png","190","test",".","image-keyboard-response","90","131789","0.0-3.0-1.43","true"
"729","ImagesTennis/TR105.png","190","test",".","image-keyboard-response","92","133021","0.0-3.0-1.44","true"
"689","ImagesDirect/VR107.5.png","190","test",".","image-keyboard-response","94","134214","0.0-3.0-1.45","true"
"681","ImagesSoccer/VL110.png","188","test",",","image-keyboard-response","96","135397","0.0-3.0-1.46","true"
"505","ImagesTennis/TR107.5.png","190","test",".","image-keyboard-response","98","136405","0.0-3.0-1.47","true"
"602","ImagesSoccer/VR110.png","190","test",".","image-keyboard-response","100","137510","0.0-3.0-1.48","true"
"1352","ImagesTennis/TR90.png","188","test",",","image-keyboard-response","102","139366","0.0-3.0-1.49","true"
"873","ImagesSoccer/VL105.png","188","test",",","image-keyboard-response","104","140742","0.0-3.0-1.50","true"
"937","ImagesDirect/VR105.png","190","test",".","image-keyboard-response","106","142182","0.0-3.0-1.51","true"
"1281","ImagesSoccer/VR95.png","190","test",",","image-keyboard-response","108","143966","0.0-3.0-1.52","false"
"969","ImagesDirect/VR102.5.png","190","test",".","image-keyboard-response","110","145438","0.0-3.0-1.53","true"
"769","ImagesDirect/VR110.png","190","test",".","image-keyboard-response","112","146711","0.0-3.0-1.54","true"
"881","ImagesSoccer/VR110.png","190","test",".","image-keyboard-response","114","148095","0.0-3.0-1.55","true"
"1217","ImagesDirect/VR97.5.png","190","test",",","image-keyboard-response","116","149814","0.0-3.0-1.56","false"
"1458","ImagesTennis/TL92.5.png","190","test",".","image-keyboard-response","118","151775","0.0-3.0-1.57","true"
"3625","ImagesDirect/VR95.png","188","test",",","image-keyboard-response","120","155903","0.0-3.0-1.58","true"
"1817","ImagesTennis/TL95.png","190","test",".","image-keyboard-response","122","158223","0.0-3.0-1.59","true"
"1081","ImagesSoccer/VL90.png","190","test",".","image-keyboard-response","124","159807","0.0-3.0-1.60","true"
"834","ImagesDirect/VR102.5.png","190","test",".","image-keyboard-response","126","161143","0.0-3.0-1.61","true"
"1481","ImagesTennis/TR105.png","190","test",".","image-keyboard-response","128","163127","0.0-3.0-1.62","true"
"865","ImagesDirect/VR107.5.png","190","test",".","image-keyboard-response","130","164495","0.0-3.0-1.63","true"
"778","ImagesTennis/TR100.png","188","test",".","image-keyboard-response","132","165776","0.0-3.0-1.64","false"
"850","ImagesSoccer/VL95.png","188","test",".","image-keyboard-response","134","167128","0.0-3.0-1.65","false"
"1002","ImagesTennis/TL110.png","188","test",",","image-keyboard-response","136","168632","0.0-3.0-1.66","true"
"1345","ImagesSoccer/VL100.png","188","test",".","image-keyboard-response","138","170480","0.0-3.0-1.67","false"
"1665","ImagesDirect/VL92.5.png","190","test",".","image-keyboard-response","140","172648","0.0-3.0-1.68","true"
"1489","ImagesTennis/TL100.png","190","test",".","image-keyboard-response","142","174640","0.0-3.0-1.69","true"
"849","ImagesDirect/VL107.5.png","188","test",",","image-keyboard-response","144","175992","0.0-3.0-1.70","true"
"1041","ImagesDirect/VL95.png","188","test",".","image-keyboard-response","146","177537","0.0-3.0-1.71","false"
"985","ImagesSoccer/VL107.5.png","188","test",",","image-keyboard-response","148","179024","0.0-3.0-1.72","true"
"1570","ImagesSoccer/VR95.png","188","test",",","image-keyboard-response","150","181097","0.0-3.0-1.73","true"
"1065","ImagesDirect/VR100.png","190","test",".","image-keyboard-response","152","182665","0.0-3.0-1.74","true"
"1681","ImagesSoccer/VR105.png","190","test",".","image-keyboard-response","154","184849","0.0-3.0-1.75","true"
"1201","ImagesDirect/VL102.5.png","188","test",",","image-keyboard-response","156","186553","0.0-3.0-1.76","true"
"865","ImagesSoccer/VL110.png","188","test",",","image-keyboard-response","158","187921","0.0-3.0-1.77","true"
"1593","ImagesSoccer/VL102.5.png","188","test",",","image-keyboard-response","160","190018","0.0-3.0-1.78","true"
"1250","ImagesSoccer/VL105.png","188","test",",","image-keyboard-response","162","191770","0.0-3.0-1.79","true"
"1489","ImagesSoccer/VR102.5.png","190","test",".","image-keyboard-response","164","193762","0.0-3.0-1.80","true"
"1169","ImagesTennis/TL105.png","188","test",",","image-keyboard-response","166","195434","0.0-3.0-1.81","true"
"1297","ImagesTennis/TR92.5.png","188","test",",","image-keyboard-response","168","197234","0.0-3.0-1.82","true"
"777","ImagesTennis/TR102.5.png","188","test",".","image-keyboard-response","170","198514","0.0-3.0-1.83","false"
"1393","ImagesDirect/VR92.5.png","188","test",",","image-keyboard-response","172","200410","0.0-3.0-1.84","true"
"882","ImagesTennis/TR110.png","190","test",".","image-keyboard-response","174","201794","0.0-3.0-1.85","true"
"1033","ImagesSoccer/VR92.5.png","188","test",",","image-keyboard-response","176","203331","0.0-3.0-1.86","true"
"2802","ImagesSoccer/VL97.5.png","188","test",".","image-keyboard-response","178","206635","0.0-3.0-1.87","false"
"1337","ImagesDirect/VL97.5.png","190","test",".","image-keyboard-response","180","208475","0.0-3.0-1.88","true"
"1345","ImagesTennis/TR107.5.png","190","test",".","image-keyboard-response","182","210323","0.0-3.0-1.89","true"
"641","ImagesTennis/TR97.5.png","188","test",",","image-keyboard-response","184","211467","0.0-3.0-1.90","true"
"857","ImagesDirect/VL90.png","190","test",".","image-keyboard-response","186","212827","0.0-3.0-1.91","true"
"769","ImagesTennis/TL90.png","190","test",".","image-keyboard-response","188","214099","0.0-3.0-1.92","true"
"1713","ImagesSoccer/VR97.5.png","190","test",",","image-keyboard-response","190","216315","0.0-3.0-1.93","false"
"1001","ImagesDirect/VR90.png","188","test",",","image-keyboard-response","192","217820","0.0-3.0-1.94","true"
"1274","ImagesSoccer/VR107.5.png","190","test",".","image-keyboard-response","194","219596","0.0-3.0-1.95","true"
"1450","ImagesSoccer/VR100.png","188","test",".","image-keyboard-response","196","221548","0.0-3.0-1.96","false"
"625","ImagesTennis/TR95.png","188","test",",","image-keyboard-response","198","222676","0.0-3.0-1.97","true"
"609","ImagesDirect/VL105.png","188","test",",","image-keyboard-response","200","223788","0.0-3.0-1.98","true"
"617","ImagesDirect/VR105.png","190","test",".","image-keyboard-response","202","224908","0.0-3.0-1.99","true"
"1529","ImagesTennis/TL102.5.png","188","test",",","image-keyboard-response","204","226940","0.0-3.0-1.100","true"
"985","ImagesSoccer/VR90.png","188","test",",","image-keyboard-response","206","228428","0.0-3.0-1.101","true"
"1113","ImagesTennis/TL107.5.png","188","test",",","image-keyboard-response","208","230045","0.0-3.0-1.102","true"
"1137","ImagesDirect/VL110.png","188","test",",","image-keyboard-response","210","231685","0.0-3.0-1.103","true"
"3481","ImagesDirect/VL100.png","188","test",".","image-keyboard-response","212","235668","0.0-3.0-1.104","false"
"3649","ImagesTennis/TL97.5.png","190","test",".","image-keyboard-response","214","239820","0.0-3.0-1.105","true"
"833","ImagesTennis/TR90.png","188","test",",","image-keyboard-response","216","241157","0.0-3.0-1.106","true"
"1955","ImagesSoccer/VL92.5.png","190","test",".","image-keyboard-response","218","243613","0.0-3.0-1.107","true"
"994","ImagesTennis/TR92.5.png","188","test",",","image-keyboard-response","220","245109","0.0-3.0-1.108","true"
"1986","ImagesTennis/TR95.png","188","test",",","image-keyboard-response","222","247597","0.0-3.0-1.109","true"
"761","ImagesDirect/VR100.png","190","test",".","image-keyboard-response","224","248861","0.0-3.0-1.110","true"
"1289","ImagesDirect/VR90.png","188","test",",","image-keyboard-response","226","250654","0.0-3.0-1.111","true"
"1033","ImagesSoccer/VL110.png","188","test",",","image-keyboard-response","228","252189","0.0-3.0-1.112","true"
"681","ImagesTennis/TR90.png","188","test",",","image-keyboard-response","230","253374","0.0-3.0-1.113","true"
"1034","ImagesSoccer/VR95.png","188","test",",","image-keyboard-response","232","254910","0.0-3.0-1.114","true"
"1641","ImagesDirect/VR92.5.png","188","test",",","image-keyboard-response","234","257054","0.0-3.0-1.115","true"
"986","ImagesSoccer/VR110.png","188","test",".","image-keyboard-response","236","258542","0.0-3.0-1.116","false"
"1633","ImagesDirect/VR95.png","188","test",",","image-keyboard-response","238","260678","0.0-3.0-1.117","true"
"633","ImagesDirect/VR107.5.png","190","test",".","image-keyboard-response","240","261814","0.0-3.0-1.118","true"
"5804","ImagesDirect/VR102.5.png","190","test",".","image-keyboard-response","242","268121","0.0-3.0-1.119","true"
"1193","ImagesSoccer/VR105.png","190","test",".","image-keyboard-response","244","269817","0.0-3.0-1.120","true"
"561","ImagesDirect/VR105.png","190","test",".","image-keyboard-response","246","270882","0.0-3.0-1.121","true"
"802","ImagesTennis/TR110.png","190","test",".","image-keyboard-response","248","272186","0.0-3.0-1.122","true"
"1826","ImagesSoccer/VL90.png","190","test",".","image-keyboard-response","250","274514","0.0-3.0-1.123","true"
"2905","ImagesDirect/VL97.5.png","190","test",".","image-keyboard-response","252","277922","0.0-3.0-1.124","true"
"1729","ImagesDirect/VL100.png","188","test",".","image-keyboard-response","254","280154","0.0-3.0-1.125","false"
"753","ImagesSoccer/VR92.5.png","190","test",",","image-keyboard-response","256","281410","0.0-3.0-1.126","false"
"3194","ImagesSoccer/VL95.png","190","test",".","image-keyboard-response","258","285107","0.0-3.0-1.127","true"
"4156","ImagesSoccer/VL97.5.png","188","test",".","image-keyboard-response","260","289766","0.0-3.0-1.128","false"
"1329","ImagesDirect/VL107.5.png","188","test",",","image-keyboard-response","262","291598","0.0-3.0-1.129","true"
"729","ImagesTennis/TL92.5.png","190","test",".","image-keyboard-response","264","292831","0.0-3.0-1.130","true"
"1017","ImagesSoccer/VR97.5.png","190","test",",","image-keyboard-response","266","294350","0.0-3.0-1.131","false"
"841","ImagesTennis/TR97.5.png","188","test",",","image-keyboard-response","268","295694","0.0-3.0-1.132","true"
"641","ImagesDirect/VL110.png","188","test",",","image-keyboard-response","270","296839","0.0-3.0-1.133","true"
"2122","ImagesTennis/TL100.png","188","test",".","image-keyboard-response","272","299463","0.0-3.0-1.134","false"
"881","ImagesDirect/VL95.png","190","test",".","image-keyboard-response","274","300847","0.0-3.0-1.135","true"
"801","ImagesSoccer/VL92.5.png","190","test",".","image-keyboard-response","276","302151","0.0-3.0-1.136","true"
"1033","ImagesTennis/TL105.png","188","test",",","image-keyboard-response","278","303687","0.0-3.0-1.137","true"
"745","ImagesDirect/VR110.png","190","test",".","image-keyboard-response","280","304935","0.0-3.0-1.138","true"
"1089","ImagesTennis/TR100.png","188","test",".","image-keyboard-response","282","306528","0.0-3.0-1.139","false"
"1145","ImagesTennis/TL102.5.png","188","test",",","image-keyboard-response","284","308176","0.0-3.0-1.140","true"
"945","ImagesTennis/TR107.5.png","190","test",".","image-keyboard-response","286","309623","0.0-3.0-1.141","true"
"2089","ImagesTennis/TL97.5.png","190","test",".","image-keyboard-response","288","312216","0.0-3.0-1.142","true"
"1090","ImagesTennis/TL110.png","188","test",",","image-keyboard-response","290","313808","0.0-3.0-1.143","true"
"5592","ImagesDirect/VL105.png","188","test",",","image-keyboard-response","292","319904","0.0-3.0-1.144","true"
"1130","ImagesTennis/TL95.png","190","test",".","image-keyboard-response","294","321536","0.0-3.0-1.145","true"
"1209","ImagesTennis/TL90.png","190","test",".","image-keyboard-response","296","323248","0.0-3.0-1.146","true"
"3561","ImagesDirect/VL92.5.png","190","test",".","image-keyboard-response","298","327312","0.0-3.0-1.147","true"
"809","ImagesSoccer/VL107.5.png","188","test",",","image-keyboard-response","300","328624","0.0-3.0-1.148","true"
"649","ImagesSoccer/VL102.5.png","188","test",",","image-keyboard-response","302","329776","0.0-3.0-1.149","true"
"841","ImagesSoccer/VL100.png","188","test",".","image-keyboard-response","304","331121","0.0-3.0-1.150","false"
"787","ImagesSoccer/VR107.5.png","190","test",".","image-keyboard-response","306","332409","0.0-3.0-1.151","true"
"1130","ImagesTennis/TL107.5.png","188","test",",","image-keyboard-response","308","334041","0.0-3.0-1.152","true"
"985","ImagesDirect/VL90.png","190","test",".","image-keyboard-response","310","335529","0.0-3.0-1.153","true"
"697","ImagesDirect/VL102.5.png","188","test",",","image-keyboard-response","312","336729","0.0-3.0-1.154","true"
"673","ImagesSoccer/VR102.5.png","190","test",".","image-keyboard-response","314","337905","0.0-3.0-1.155","true"
"681","ImagesTennis/TR102.5.png","190","test",".","image-keyboard-response","316","339089","0.0-3.0-1.156","true"
"1489","ImagesSoccer/VR100.png","190","test",".","image-keyboard-response","318","341081","0.0-3.0-1.157","true"
"954","ImagesTennis/TR105.png","188","test",".","image-keyboard-response","320","342537","0.0-3.0-1.158","false"
"1562","ImagesSoccer/VR90.png","188","test",",","image-keyboard-response","322","344602","0.0-3.0-1.159","true"
"1121","ImagesDirect/VR97.5.png","190","test",",","image-keyboard-response","324","346226","0.0-3.0-1.160","false"
"802","ImagesSoccer/VL105.png","188","test",",","image-keyboard-response","326","347530","0.0-3.0-1.161","true"
"1065","ImagesTennis/TR90.png","188","test",",","image-keyboard-response","328","349098","0.0-3.0-1.162","true"
"2681","ImagesDirect/VR92.5.png","188","test",",","image-keyboard-response","330","352282","0.0-3.0-1.163","true"
"905","ImagesSoccer/VL97.5.png","190","test",".","image-keyboard-response","332","353690","0.0-3.0-1.164","true"
"1033","ImagesTennis/TR105.png","190","test",".","image-keyboard-response","334","355226","0.0-3.0-1.165","true"
"721","ImagesDirect/VL107.5.png","188","test",",","image-keyboard-response","336","356451","0.0-3.0-1.166","true"
"2009","ImagesTennis/TR102.5.png","190","test",".","image-keyboard-response","338","358963","0.0-3.0-1.167","true"
"810","ImagesSoccer/VR102.5.png","190","test",".","image-keyboard-response","340","360275","0.0-3.0-1.168","true"
"721","ImagesTennis/TL105.png","188","test",",","image-keyboard-response","342","361499","0.0-3.0-1.169","true"
"721","ImagesTennis/TR95.png","188","test",",","image-keyboard-response","344","362723","0.0-3.0-1.170","true"
"601","ImagesDirect/VR100.png","190","test",".","image-keyboard-response","346","363827","0.0-3.0-1.171","true"
"1777","ImagesDirect/VL90.png","190","test",".","image-keyboard-response","348","366107","0.0-3.0-1.172","true"
"1713","ImagesSoccer/VR95.png","188","test",",","image-keyboard-response","350","368323","0.0-3.0-1.173","true"
"1081","ImagesTennis/TL97.5.png","190","test",".","image-keyboard-response","352","369907","0.0-3.0-1.174","true"
"1777","ImagesTennis/TR110.png","190","test",".","image-keyboard-response","354","372188","0.0-3.0-1.175","true"
"1258","ImagesSoccer/VR105.png","190","test",".","image-keyboard-response","356","373948","0.0-3.0-1.176","true"
"849","ImagesSoccer/VR107.5.png","190","test",".","image-keyboard-response","358","375300","0.0-3.0-1.177","true"
"2561","ImagesSoccer/VL102.5.png","188","test",",","image-keyboard-response","360","378364","0.0-3.0-1.178","true"
"1113","ImagesDirect/VL102.5.png","188","test",",","image-keyboard-response","362","379980","0.0-3.0-1.179","true"
"793","ImagesDirect/VR110.png","190","test",".","image-keyboard-response","364","381277","0.0-3.0-1.180","true"
"913","ImagesSoccer/VR97.5.png","188","test",",","image-keyboard-response","366","382693","0.0-3.0-1.181","true"
"881","ImagesDirect/VR90.png","188","test",",","image-keyboard-response","368","384077","0.0-3.0-1.182","true"
"890","ImagesSoccer/VL100.png","188","test",".","image-keyboard-response","370","385469","0.0-3.0-1.183","false"
"1138","ImagesSoccer/VR90.png","188","test",",","image-keyboard-response","372","387109","0.0-3.0-1.184","true"
"777","ImagesDirect/VR97.5.png","190","test",",","image-keyboard-response","374","388389","0.0-3.0-1.185","false"
"721","ImagesDirect/VL95.png","188","test",".","image-keyboard-response","376","389613","0.0-3.0-1.186","false"
"1849","ImagesSoccer/VL105.png","188","test",",","image-keyboard-response","378","391965","0.0-3.0-1.187","true"
"793","ImagesSoccer/VR110.png","190","test",".","image-keyboard-response","380","393261","0.0-3.0-1.188","true"
"3407","ImagesTennis/TL100.png","190","test",".","image-keyboard-response","382","397172","0.0-3.0-1.189","true"
"1090","ImagesSoccer/VR100.png","190","test",".","image-keyboard-response","384","398764","0.0-3.0-1.190","true"
"841","ImagesDirect/VL110.png","188","test",",","image-keyboard-response","386","400108","0.0-3.0-1.191","true"
"969","ImagesSoccer/VL110.png","188","test",",","image-keyboard-response","388","401580","0.0-3.0-1.192","true"
"2634","ImagesDirect/VL100.png","188","test",".","image-keyboard-response","390","404716","0.0-3.0-1.193","false"
"930","ImagesTennis/TL107.5.png","188","test",",","image-keyboard-response","392","406148","0.0-3.0-1.194","true"
"1258","ImagesSoccer/VL92.5.png","190","test",".","image-keyboard-response","394","407909","0.0-3.0-1.195","true"
"954","ImagesSoccer/VL107.5.png","188","test",",","image-keyboard-response","396","409365","0.0-3.0-1.196","true"
"800","ImagesDirect/VR107.5.png","190","test",".","image-keyboard-response","398","410668","0.0-3.0-1.197","true"
"1194","ImagesDirect/VL97.5.png","190","test",".","image-keyboard-response","400","412365","0.0-3.0-1.198","true"
"2345","ImagesTennis/TR92.5.png","188","test",",","image-keyboard-response","402","415213","0.0-3.0-1.199","true"
"1049","ImagesSoccer/VL90.png","190","test",".","image-keyboard-response","404","416765","0.0-3.0-1.200","true"
"1169","ImagesDirect/VR95.png","190","test",",","image-keyboard-response","406","418437","0.0-3.0-1.201","false"
"681","ImagesTennis/TL92.5.png","190","test",".","image-keyboard-response","408","419622","0.0-3.0-1.202","true"
"745","ImagesDirect/VL105.png","188","test",",","image-keyboard-response","410","420870","0.0-3.0-1.203","true"
"1218","ImagesTennis/TR97.5.png","190","test",",","image-keyboard-response","412","422590","0.0-3.0-1.204","false"
"1033","ImagesTennis/TR107.5.png","190","test",".","image-keyboard-response","414","424126","0.0-3.0-1.205","true"
"4881","ImagesTennis/TL102.5.png","188","test",",","image-keyboard-response","416","429510","0.0-3.0-1.206","true"
"601","ImagesTennis/TR100.png","188","test",".","image-keyboard-response","418","430614","0.0-3.0-1.207","false"
"697","ImagesTennis/TL95.png","190","test",".","image-keyboard-response","420","431815","0.0-3.0-1.208","true"
"842","ImagesDirect/VR102.5.png","190","test",".","image-keyboard-response","422","433159","0.0-3.0-1.209","true"
"785","ImagesTennis/TL90.png","190","test",".","image-keyboard-response","424","434447","0.0-3.0-1.210","true"
"625","ImagesTennis/TL110.png","188","test",",","image-keyboard-response","426","435575","0.0-3.0-1.211","true"
"1210","ImagesDirect/VL92.5.png","190","test",".","image-keyboard-response","428","437287","0.0-3.0-1.212","true"
"849","ImagesSoccer/VL95.png","188","test",".","image-keyboard-response","430","438639","0.0-3.0-1.213","false"
"1041","ImagesSoccer/VR92.5.png","190","test",",","image-keyboard-response","432","440183","0.0-3.0-1.214","false"
"761","ImagesDirect/VR105.png","190","test",".","image-keyboard-response","434","441447","0.0-3.0-1.215","true"
"617","ImagesDirect/VL105.png","188","test",",","image-keyboard-response","436","442567","0.0-3.0-1.216","true"
"1593","ImagesTennis/TR105.png","188","test",".","image-keyboard-response","438","444663","0.0-3.0-1.217","false"
"1521","ImagesTennis/TR110.png","190","test",".","image-keyboard-response","440","446688","0.0-3.0-1.218","true"
"2129","ImagesTennis/TR100.png","188","test",".","image-keyboard-response","442","449320","0.0-3.0-1.219","false"
"777","ImagesDirect/VL90.png","190","test",".","image-keyboard-response","444","450600","0.0-3.0-1.220","true"
"777","ImagesDirect/VR107.5.png","190","test",".","image-keyboard-response","446","451880","0.0-3.0-1.221","true"
"721","ImagesSoccer/VL90.png","190","test",".","image-keyboard-response","448","453104","0.0-3.0-1.222","true"
"577","ImagesDirect/VL110.png","188","test",",","image-keyboard-response","450","454184","0.0-3.0-1.223","true"
"1633","ImagesDirect/VR97.5.png","188","test",",","image-keyboard-response","452","456321","0.0-3.0-1.224","true"
"840","ImagesSoccer/VR92.5.png","188","test",",","image-keyboard-response","454","457664","0.0-3.0-1.225","true"
"921","ImagesDirect/VR92.5.png","188","test",",","image-keyboard-response","456","459089","0.0-3.0-1.226","true"
"977","ImagesSoccer/VL95.png","188","test",".","image-keyboard-response","458","460569","0.0-3.0-1.227","false"
"897","ImagesSoccer/VL102.5.png","188","test",",","image-keyboard-response","460","461969","0.0-3.0-1.228","true"
"944","ImagesSoccer/VR97.5.png","190","test",",","image-keyboard-response","462","463417","0.0-3.0-1.229","false"
"1178","ImagesTennis/TL105.png","188","test",",","image-keyboard-response","464","465097","0.0-3.0-1.230","true"
"1135","ImagesSoccer/VR90.png","188","test",",","image-keyboard-response","466","466737","0.0-3.0-1.231","true"
"696","ImagesSoccer/VR100.png","190","test",".","image-keyboard-response","468","467937","0.0-3.0-1.232","true"
"785","ImagesTennis/TL90.png","190","test",".","image-keyboard-response","470","469225","0.0-3.0-1.233","true"
"913","ImagesDirect/VL92.5.png","190","test",".","image-keyboard-response","472","470641","0.0-3.0-1.234","true"
"1458","ImagesDirect/VR100.png","190","test",".","image-keyboard-response","474","472602","0.0-3.0-1.235","true"
"1113","ImagesTennis/TR95.png","188","test",",","image-keyboard-response","476","474218","0.0-3.0-1.236","true"
"889","ImagesDirect/VL100.png","188","test",".","image-keyboard-response","478","475610","0.0-3.0-1.237","false"
"1282","ImagesDirect/VR95.png","188","test",",","image-keyboard-response","480","477394","0.0-3.0-1.238","true"
"809","ImagesDirect/VR105.png","190","test",".","image-keyboard-response","482","478706","0.0-3.0-1.239","true"
"1297","ImagesTennis/TL97.5.png","190","test",".","image-keyboard-response","484","480506","0.0-3.0-1.240","true"
"1345","ImagesTennis/TR97.5.png","188","test",",","image-keyboard-response","486","482354","0.0-3.0-1.241","true"
"713","ImagesSoccer/VR102.5.png","190","test",".","image-keyboard-response","488","483571","0.0-3.0-1.242","true"
"2360","ImagesSoccer/VL100.png","188","test",".","image-keyboard-response","490","486434","0.0-3.0-1.243","false"
"1354","ImagesTennis/TL110.png","188","test",",","image-keyboard-response","492","488291","0.0-3.0-1.244","true"
"1665","ImagesDirect/VR102.5.png","190","test",".","image-keyboard-response","494","490459","0.0-3.0-1.245","true"
"1401","ImagesSoccer/VL110.png","188","test",",","image-keyboard-response","496","492363","0.0-3.0-1.246","true"
"2617","ImagesSoccer/VR110.png","190","test",".","image-keyboard-response","498","495483","0.0-3.0-1.247","true"
"1737","ImagesDirect/VL95.png","190","test",".","image-keyboard-response","500","497724","0.0-3.0-1.248","true"
"1712","ImagesTennis/TL107.5.png","188","test",",","image-keyboard-response","502","499939","0.0-3.0-1.249","true"
"888","ImagesSoccer/VR105.png","190","test",".","image-keyboard-response","504","501332","0.0-3.0-1.250","true"
"817","ImagesDirect/VL107.5.png","188","test",",","image-keyboard-response","506","502652","0.0-3.0-1.251","true"
"1321","ImagesTennis/TR102.5.png","188","test",".","image-keyboard-response","508","504476","0.0-3.0-1.252","false"
"761","ImagesTennis/TR92.5.png","188","test",",","image-keyboard-response","510","505740","0.0-3.0-1.253","true"
"1369","ImagesDirect/VL102.5.png","188","test",",","image-keyboard-response","512","507612","0.0-3.0-1.254","true"
"753","ImagesSoccer/VL97.5.png","190","test",".","image-keyboard-response","514","508868","0.0-3.0-1.255","true"
"1040","ImagesSoccer/VR107.5.png","190","test",".","image-keyboard-response","516","510412","0.0-3.0-1.256","true"
"5842","ImagesSoccer/VL105.png","190","test",",","image-keyboard-response","518","516757","0.0-3.0-1.257","false"
"1113","ImagesDirect/VL97.5.png","190","test",".","image-keyboard-response","520","518373","0.0-3.0-1.258","true"
"2065","ImagesTennis/TL102.5.png","188","test",",","image-keyboard-response","522","520941","0.0-3.0-1.259","true"
"985","ImagesTennis/TL100.png","190","test",".","image-keyboard-response","524","522429","0.0-3.0-1.260","true"
"905","ImagesTennis/TL95.png","190","test",".","image-keyboard-response","526","523837","0.0-3.0-1.261","true"
"993","ImagesSoccer/VR95.png","190","test",",","image-keyboard-response","528","525333","0.0-3.0-1.262","false"
"689","ImagesTennis/TL92.5.png","190","test",".","image-keyboard-response","530","526525","0.0-3.0-1.263","true"
"1233","ImagesSoccer/VL92.5.png","190","test",".","image-keyboard-response","532","528262","0.0-3.0-1.264","true"
"889","ImagesDirect/VR90.png","188","test",",","image-keyboard-response","534","529654","0.0-3.0-1.265","true"
"721","ImagesTennis/TR90.png","188","test",",","image-keyboard-response","536","530878","0.0-3.0-1.266","true"
"649","ImagesDirect/VR110.png","190","test",".","image-keyboard-response","538","532030","0.0-3.0-1.267","true"
"1145","ImagesSoccer/VL107.5.png","188","test",",","image-keyboard-response","540","533678","0.0-3.0-1.268","true"
"1425","ImagesTennis/TR107.5.png","190","test",".","image-keyboard-response","542","535606","0.0-3.0-1.269","true"
"6168","ImagesCoins/10R105.png","190","test",".","image-keyboard-response","544","542279","0.0-4.0-1.0","true"
"1137","ImagesCoins/10R107.5.png","190","test",".","image-keyboard-response","546","543919","0.0-4.0-1.1","true"
"833","ImagesCoins/10R90.png","188","test",",","image-keyboard-response","548","545255","0.0-4.0-1.2","true"
"1361","ImagesCoins/10L92.5.png","190","test",".","image-keyboard-response","550","547119","0.0-4.0-1.3","true"
"841","ImagesCoins/10R110.png","190","test",".","image-keyboard-response","552","548463","0.0-4.0-1.4","true"
"1626","ImagesCoins/10R100.png","190","test",".","image-keyboard-response","554","550591","0.0-4.0-1.5","true"
"793","ImagesCoins/10L105.png","188","test",",","image-keyboard-response","556","551887","0.0-4.0-1.6","true"
"1721","ImagesCoins/10L95.png","188","test",".","image-keyboard-response","558","554112","0.0-4.0-1.7","false"
"1025","ImagesCoins/10R102.5.png","190","test",".","image-keyboard-response","560","555640","0.0-4.0-1.8","true"
"4297","ImagesCoins/10R97.5.png","190","test",",","image-keyboard-response","562","560440","0.0-4.0-1.9","false"
"1161","ImagesCoins/10L102.5.png","188","test",",","image-keyboard-response","564","562104","0.0-4.0-1.10","true"
"1600","ImagesCoins/10R92.5.png","188","test",",","image-keyboard-response","566","564208","0.0-4.0-1.11","true"
"1617","ImagesCoins/10L107.5.png","188","test",",","image-keyboard-response","568","566328","0.0-4.0-1.12","true"
"1120","ImagesCoins/10L110.png","188","test",",","image-keyboard-response","570","567953","0.0-4.0-1.13","true"
"7322","ImagesCoins/10R95.png","188","test",",","image-keyboard-response","572","575777","0.0-4.0-1.14","true"
"1593","ImagesCoins/10L90.png","190","test",".","image-keyboard-response","574","577873","0.0-4.0-1.15","true"
"1617","ImagesCoins/10L100.png","188","test",".","image-keyboard-response","576","579993","0.0-4.0-1.16","false"
"1137","ImagesCoins/10L97.5.png","188","test",".","image-keyboard-response","578","581634","0.0-4.0-1.17","false"
"1337","ImagesCoins/10R90.png","188","test",",","image-keyboard-response","580","583474","0.0-4.0-1.18","true"
"1386","ImagesCoins/10L102.5.png","188","test",",","image-keyboard-response","582","585362","0.0-4.0-1.19","true"
"3025","ImagesCoins/10L100.png","190","test",".","image-keyboard-response","584","588890","0.0-4.0-1.20","true"
"1737","ImagesCoins/10L95.png","190","test",".","image-keyboard-response","586","591131","0.0-4.0-1.21","true"
"936","ImagesCoins/10R110.png","190","test",".","image-keyboard-response","588","592570","0.0-4.0-1.22","true"
"571","ImagesCoins/10L110.png","188","test",",","image-keyboard-response","590","593643","0.0-4.0-1.23","true"
"584","ImagesCoins/10L107.5.png","188","test",",","image-keyboard-response","592","594731","0.0-4.0-1.24","true"
"874","ImagesCoins/10R107.5.png","190","test",".","image-keyboard-response","594","596107","0.0-4.0-1.25","true"
"651","ImagesCoins/10L97.5.png","188","test",".","image-keyboard-response","596","597259","0.0-4.0-1.26","false"
"4953","ImagesCoins/10R97.5.png","190","test",",","image-keyboard-response","598","602715","0.0-4.0-1.27","false"
"778","ImagesCoins/10R105.png","190","test",".","image-keyboard-response","600","603995","0.0-4.0-1.28","true"
"937","ImagesCoins/10R95.png","188","test",",","image-keyboard-response","602","605435","0.0-4.0-1.29","true"
"1314","ImagesCoins/10R92.5.png","188","test",",","image-keyboard-response","604","607252","0.0-4.0-1.30","true"
"2537","ImagesCoins/10L92.5.png","190","test",".","image-keyboard-response","606","610292","0.0-4.0-1.31","true"
"1257","ImagesCoins/10R102.5.png","190","test",".","image-keyboard-response","608","612052","0.0-4.0-1.32","true"
"722","ImagesCoins/10L105.png","188","test",",","image-keyboard-response","610","613276","0.0-4.0-1.33","true"
"881","ImagesCoins/10L90.png","190","test",".","image-keyboard-response","612","614660","0.0-4.0-1.34","true"
"1177","ImagesCoins/10R100.png","190","test",".","image-keyboard-response","614","616340","0.0-4.0-1.35","true"
"697","ImagesCoins/10L110.png","188","test",",","image-keyboard-response","616","617540","0.0-4.0-1.36","true"
"1177","ImagesCoins/10R102.5.png","190","test",".","image-keyboard-response","618","619220","0.0-4.0-1.37","true"
"1009","ImagesCoins/10L107.5.png","188","test",",","image-keyboard-response","620","620732","0.0-4.0-1.38","true"
"1626","ImagesCoins/10R97.5.png","190","test",",","image-keyboard-response","622","622860","0.0-4.0-1.39","false"
"2354","ImagesCoins/10L105.png","188","test",",","image-keyboard-response","624","625717","0.0-4.0-1.40","true"
"1689","ImagesCoins/10R92.5.png","188","test",",","image-keyboard-response","626","627909","0.0-4.0-1.41","true"
"1201","ImagesCoins/10R90.png","188","test",",","image-keyboard-response","628","629613","0.0-4.0-1.42","true"
"2114","ImagesCoins/10L97.5.png","188","test",".","image-keyboard-response","630","632229","0.0-4.0-1.43","false"
"3586","ImagesCoins/10R95.png","188","test",",","image-keyboard-response","632","636318","0.0-4.0-1.44","true"
"889","ImagesCoins/10R110.png","190","test",".","image-keyboard-response","634","637710","0.0-4.0-1.45","true"
"1081","ImagesCoins/10L92.5.png","190","test",".","image-keyboard-response","636","639294","0.0-4.0-1.46","true"
"1113","ImagesCoins/10R105.png","190","test",".","image-keyboard-response","638","640910","0.0-4.0-1.47","true"
"961","ImagesCoins/10R107.5.png","190","test",".","image-keyboard-response","640","642374","0.0-4.0-1.48","true"
"1129","ImagesCoins/10L100.png","188","test",".","image-keyboard-response","642","644006","0.0-4.0-1.49","false"
"2745","ImagesCoins/10R100.png","190","test",".","image-keyboard-response","644","647254","0.0-4.0-1.50","true"
"1698","ImagesCoins/10L95.png","190","test",".","image-keyboard-response","646","649455","0.0-4.0-1.51","true"
"728","ImagesCoins/10L102.5.png","188","test",",","image-keyboard-response","648","650686","0.0-4.0-1.52","true"
"906","ImagesCoins/10L90.png","190","test",".","image-keyboard-response","650","652095","0.0-4.0-1.53","true"
"2474","ImagesCoins/10L92.5.png","188","test",".","image-keyboard-response","652","655071","0.0-4.0-1.54","false"
"1249","ImagesCoins/10L95.png","188","test",".","image-keyboard-response","654","656823","0.0-4.0-1.55","false"
"850","ImagesCoins/10L102.5.png","188","test",",","image-keyboard-response","656","658175","0.0-4.0-1.56","true"
"625","ImagesCoins/10L90.png","190","test",".","image-keyboard-response","658","659303","0.0-4.0-1.57","true"
"729","ImagesCoins/10L107.5.png","188","test",",","image-keyboard-response","660","660535","0.0-4.0-1.58","true"
"3699","ImagesCoins/10L100.png","188","test",".","image-keyboard-response","662","664736","0.0-4.0-1.59","false"
"2026","ImagesCoins/10R95.png","188","test",",","image-keyboard-response","664","667264","0.0-4.0-1.60","true"
"777","ImagesCoins/10R110.png","190","test",".","image-keyboard-response","666","668544","0.0-4.0-1.61","true"
"961","ImagesCoins/10R92.5.png","188","test",",","image-keyboard-response","668","670008","0.0-4.0-1.62","true"
"1185","ImagesCoins/10R100.png","190","test",".","image-keyboard-response","670","671696","0.0-4.0-1.63","true"
"1225","ImagesCoins/10L97.5.png","188","test",".","image-keyboard-response","672","673424","0.0-4.0-1.64","false"
"665","ImagesCoins/10R90.png","188","test",",","image-keyboard-response","674","674593","0.0-4.0-1.65","true"
"768","ImagesCoins/10R105.png","190","test",".","image-keyboard-response","676","675865","0.0-4.0-1.66","true"
"641","ImagesCoins/10L110.png","188","test",",","image-keyboard-response","678","677009","0.0-4.0-1.67","true"
"720","ImagesCoins/10L105.png","188","test",",","image-keyboard-response","680","678233","0.0-4.0-1.68","true"
"1353","ImagesCoins/10R97.5.png","190","test",",","image-keyboard-response","682","680089","0.0-4.0-1.69","false"
"857","ImagesCoins/10R102.5.png","190","test",".","image-keyboard-response","684","681449","0.0-4.0-1.70","true"
"529","ImagesCoins/10R107.5.png","190","test",".","image-keyboard-response","686","682481","0.0-4.0-1.71","true"
"2409","ImagesCoins/10L110.png","188","test",",","image-keyboard-response","688","685393","0.0-4.0-1.72","true"
"1810","ImagesCoins/10L100.png","188","test",".","image-keyboard-response","690","687705","0.0-4.0-1.73","false"
"930","ImagesCoins/10L95.png","190","test",".","image-keyboard-response","692","689137","0.0-4.0-1.74","true"
"1138","ImagesCoins/10L105.png","188","test",",","image-keyboard-response","694","690778","0.0-4.0-1.75","true"
"1217","ImagesCoins/10R107.5.png","190","test",".","image-keyboard-response","696","692498","0.0-4.0-1.76","true"
"672","ImagesCoins/10R110.png","190","test",".","image-keyboard-response","698","693674","0.0-4.0-1.77","true"
"776","ImagesCoins/10L102.5.png","188","test",",","image-keyboard-response","700","694954","0.0-4.0-1.78","true"
"857","ImagesCoins/10R97.5.png","190","test",",","image-keyboard-response","702","696314","0.0-4.0-1.79","false"
"761","ImagesCoins/10L97.5.png","188","test",".","image-keyboard-response","704","697578","0.0-4.0-1.80","false"
"3928","ImagesCoins/10R95.png","188","test",",","image-keyboard-response","706","702011","0.0-4.0-1.81","true"
"1199","ImagesCoins/10R102.5.png","190","test",".","image-keyboard-response","708","703715","0.0-4.0-1.82","true"
"881","ImagesCoins/10R90.png","188","test",",","image-keyboard-response","710","705099","0.0-4.0-1.83","true"
"1161","ImagesCoins/10R92.5.png","188","test",",","image-keyboard-response","712","706763","0.0-4.0-1.84","true"
"2657","ImagesCoins/10L90.png","190","test",".","image-keyboard-response","714","709923","0.0-4.0-1.85","true"
"1001","ImagesCoins/10R105.png","190","test",".","image-keyboard-response","716","711428","0.0-4.0-1.86","true"
"664","ImagesCoins/10L107.5.png","188","test",",","image-keyboard-response","718","712595","0.0-4.0-1.87","true"
"729","ImagesCoins/10L92.5.png","190","test",".","image-keyboard-response","720","713827","0.0-4.0-1.88","true"
"1082","ImagesCoins/10R100.png","190","test",".","image-keyboard-response","722","715412","0.0-4.0-1.89","true"
