"rt","stimulus","key_press","test_part","correct_response","trial_type","trial_index","time_elapsed","internal_node_id","correct"
"3573","ImagesCoins/10L100.png","188","test",".","image-keyboard-response","4","21821","0.0-3.0-1.0","false"
"12817","ImagesCoins/10L97.5.png","188","test",".","image-keyboard-response","6","35143","0.0-3.0-1.1","false"
"2632","ImagesCoins/10L95.png","190","test",".","image-keyboard-response","8","38278","0.0-3.0-1.2","true"
"1200","ImagesCoins/10R90.png","188","test",",","image-keyboard-response","10","39983","0.0-3.0-1.3","true"
"797","ImagesCoins/10R105.png","190","test",".","image-keyboard-response","12","41284","0.0-3.0-1.4","true"
"703","ImagesCoins/10L90.png","190","test",".","image-keyboard-response","14","42492","0.0-3.0-1.5","true"
"10348","ImagesCoins/10L102.5.png","188","test",",","image-keyboard-response","16","53345","0.0-3.0-1.6","true"
"1526","ImagesCoins/10L105.png","188","test",",","image-keyboard-response","18","55375","0.0-3.0-1.7","true"
"766","ImagesCoins/10R107.5.png","190","test",".","image-keyboard-response","20","56644","0.0-3.0-1.8","true"
"829","ImagesCoins/10R110.png","190","test",".","image-keyboard-response","22","57978","0.0-3.0-1.9","true"
"997","ImagesCoins/10R102.5.png","190","test",".","image-keyboard-response","24","59480","0.0-3.0-1.10","true"
"836","ImagesCoins/10L107.5.png","188","test",",","image-keyboard-response","26","60819","0.0-3.0-1.11","true"
"782","ImagesCoins/10L92.5.png","190","test",".","image-keyboard-response","28","62104","0.0-3.0-1.12","true"
"7801","ImagesCoins/10R97.5.png","188","test",",","image-keyboard-response","30","70410","0.0-3.0-1.13","true"
"1189","ImagesCoins/10L110.png","188","test",",","image-keyboard-response","32","72104","0.0-3.0-1.14","true"
"2092","ImagesCoins/10R95.png","188","test",",","image-keyboard-response","34","74701","0.0-3.0-1.15","true"
"1443","ImagesCoins/10R92.5.png","188","test",",","image-keyboard-response","36","76648","0.0-3.0-1.16","true"
"16250","ImagesCoins/10R100.png","188","test",".","image-keyboard-response","38","93402","0.0-3.0-1.17","false"
"2181","ImagesCoins/10L100.png","188","test",".","image-keyboard-response","40","96088","0.0-3.0-1.18","false"
"896","ImagesCoins/10L90.png","190","test",".","image-keyboard-response","42","97488","0.0-3.0-1.19","true"
"1487","ImagesCoins/10R102.5.png","190","test",".","image-keyboard-response","44","99479","0.0-3.0-1.20","true"
"1865","ImagesCoins/10R95.png","188","test",",","image-keyboard-response","46","101848","0.0-3.0-1.21","true"
"795","ImagesCoins/10L92.5.png","190","test",".","image-keyboard-response","48","103147","0.0-3.0-1.22","true"
"948","ImagesCoins/10L110.png","188","test",",","image-keyboard-response","50","104599","0.0-3.0-1.23","true"
"685","ImagesCoins/10R105.png","190","test",".","image-keyboard-response","52","105788","0.0-3.0-1.24","true"
"602","ImagesCoins/10R110.png","190","test",".","image-keyboard-response","54","106894","0.0-3.0-1.25","true"
"6813","ImagesCoins/10R97.5.png","188","test",",","image-keyboard-response","56","114210","0.0-3.0-1.26","true"
"1868","ImagesCoins/10L95.png","190","test",".","image-keyboard-response","58","116583","0.0-3.0-1.27","true"
"8254","ImagesCoins/10R92.5.png","188","test",",","image-keyboard-response","60","125342","0.0-3.0-1.28","true"
"2893","ImagesCoins/10L102.5.png","188","test",",","image-keyboard-response","62","128738","0.0-3.0-1.29","true"
"1048","ImagesCoins/10L107.5.png","188","test",",","image-keyboard-response","64","130290","0.0-3.0-1.30","true"
"834","ImagesCoins/10R107.5.png","190","test",".","image-keyboard-response","66","131627","0.0-3.0-1.31","true"
"1243","ImagesCoins/10L105.png","188","test",",","image-keyboard-response","68","133373","0.0-3.0-1.32","true"
"2027","ImagesCoins/10R90.png","188","test",",","image-keyboard-response","70","135903","0.0-3.0-1.33","true"
"1495","ImagesCoins/10R100.png","190","test",".","image-keyboard-response","72","137903","0.0-3.0-1.34","true"
"2045","ImagesCoins/10L97.5.png","190","test",".","image-keyboard-response","74","140453","0.0-3.0-1.35","true"
"585","ImagesCoins/10R102.5.png","190","test",".","image-keyboard-response","76","141541","0.0-3.0-1.36","true"
"1892","ImagesCoins/10R95.png","190","test",",","image-keyboard-response","78","143936","0.0-3.0-1.37","false"
"1556","ImagesCoins/10L95.png","190","test",".","image-keyboard-response","80","145997","0.0-3.0-1.38","true"
"823","ImagesCoins/10R110.png","190","test",".","image-keyboard-response","82","147323","0.0-3.0-1.39","true"
"1229","ImagesCoins/10L100.png","188","test",".","image-keyboard-response","84","149055","0.0-3.0-1.40","false"
"1338","ImagesCoins/10R100.png","190","test",".","image-keyboard-response","86","150897","0.0-3.0-1.41","true"
"1121","ImagesCoins/10L110.png","188","test",",","image-keyboard-response","88","152521","0.0-3.0-1.42","true"
"2229","ImagesCoins/10L102.5.png","188","test",",","image-keyboard-response","90","155255","0.0-3.0-1.43","true"
"2267","ImagesCoins/10R92.5.png","188","test",",","image-keyboard-response","92","158026","0.0-3.0-1.44","true"
"871","ImagesCoins/10R107.5.png","190","test",".","image-keyboard-response","94","159401","0.0-3.0-1.45","true"
"678","ImagesCoins/10R105.png","190","test",".","image-keyboard-response","96","160582","0.0-3.0-1.46","true"
"1141","ImagesCoins/10L92.5.png","190","test",".","image-keyboard-response","98","162228","0.0-3.0-1.47","true"
"1619","ImagesCoins/10R90.png","188","test",",","image-keyboard-response","100","164352","0.0-3.0-1.48","true"
"687","ImagesCoins/10L107.5.png","188","test",",","image-keyboard-response","102","165544","0.0-3.0-1.49","true"
"9296","ImagesCoins/10R97.5.png","188","test",",","image-keyboard-response","104","175345","0.0-3.0-1.50","true"
"1423","ImagesCoins/10L97.5.png","188","test",".","image-keyboard-response","106","177271","0.0-3.0-1.51","false"
"665","ImagesCoins/10L90.png","190","test",".","image-keyboard-response","108","178441","0.0-3.0-1.52","true"
"2209","ImagesCoins/10L105.png","188","test",",","image-keyboard-response","110","181154","0.0-3.0-1.53","true"
"1262","ImagesCoins/10R90.png","188","test",",","image-keyboard-response","112","182920","0.0-3.0-1.54","true"
"813","ImagesCoins/10L90.png","190","test",".","image-keyboard-response","114","184236","0.0-3.0-1.55","true"
"1344","ImagesCoins/10L102.5.png","188","test",",","image-keyboard-response","116","186084","0.0-3.0-1.56","true"
"1119","ImagesCoins/10L107.5.png","188","test",",","image-keyboard-response","118","187708","0.0-3.0-1.57","true"
"973","ImagesCoins/10L92.5.png","190","test",".","image-keyboard-response","120","189185","0.0-3.0-1.58","true"
"13578","ImagesCoins/10L100.png","188","test",".","image-keyboard-response","122","203267","0.0-3.0-1.59","false"
"1342","ImagesCoins/10L110.png","188","test",",","image-keyboard-response","124","205113","0.0-3.0-1.60","true"
"594","ImagesCoins/10R102.5.png","190","test",".","image-keyboard-response","126","206211","0.0-3.0-1.61","true"
"873","ImagesCoins/10R105.png","190","test",".","image-keyboard-response","128","207588","0.0-3.0-1.62","true"
"1212","ImagesCoins/10R92.5.png","188","test",",","image-keyboard-response","130","209303","0.0-3.0-1.63","true"
"893","ImagesCoins/10R100.png","190","test",".","image-keyboard-response","132","210701","0.0-3.0-1.64","true"
"3581","ImagesCoins/10L97.5.png","190","test",".","image-keyboard-response","134","214787","0.0-3.0-1.65","true"
"2567","ImagesCoins/10L105.png","188","test",",","image-keyboard-response","136","217857","0.0-3.0-1.66","true"
"1542","ImagesCoins/10R95.png","188","test",",","image-keyboard-response","138","219904","0.0-3.0-1.67","true"
"1894","ImagesCoins/10L95.png","190","test",".","image-keyboard-response","140","222302","0.0-3.0-1.68","true"
"6991","ImagesCoins/10R97.5.png","188","test",",","image-keyboard-response","142","229796","0.0-3.0-1.69","true"
"839","ImagesCoins/10R107.5.png","190","test",".","image-keyboard-response","144","231138","0.0-3.0-1.70","true"
"762","ImagesCoins/10R110.png","190","test",".","image-keyboard-response","146","232405","0.0-3.0-1.71","true"
"3751","ImagesCoins/10R92.5.png","188","test",",","image-keyboard-response","148","236660","0.0-3.0-1.72","true"
"966","ImagesCoins/10R90.png","188","test",",","image-keyboard-response","150","238130","0.0-3.0-1.73","true"
"630","ImagesCoins/10R110.png","190","test",".","image-keyboard-response","152","239264","0.0-3.0-1.74","true"
"546","ImagesCoins/10R107.5.png","190","test",".","image-keyboard-response","154","240313","0.0-3.0-1.75","true"
"1147","ImagesCoins/10L90.png","190","test",".","image-keyboard-response","156","241965","0.0-3.0-1.76","true"
"3653","ImagesCoins/10L97.5.png","190","test",".","image-keyboard-response","158","246122","0.0-3.0-1.77","true"
"981","ImagesCoins/10L107.5.png","188","test",",","image-keyboard-response","160","247606","0.0-3.0-1.78","true"
"883","ImagesCoins/10L92.5.png","190","test",".","image-keyboard-response","162","248993","0.0-3.0-1.79","true"
"789","ImagesCoins/10R102.5.png","190","test",".","image-keyboard-response","164","250286","0.0-3.0-1.80","true"
"1407","ImagesCoins/10L100.png","188","test",".","image-keyboard-response","166","252197","0.0-3.0-1.81","false"
"932","ImagesCoins/10R100.png","190","test",".","image-keyboard-response","168","253632","0.0-3.0-1.82","true"
"814","ImagesCoins/10L102.5.png","188","test",",","image-keyboard-response","170","254949","0.0-3.0-1.83","true"
"1408","ImagesCoins/10R95.png","188","test",",","image-keyboard-response","172","256861","0.0-3.0-1.84","true"
"8402","ImagesCoins/10L95.png","190","test",".","image-keyboard-response","174","265767","0.0-3.0-1.85","true"
"6566","ImagesCoins/10R97.5.png","188","test",",","image-keyboard-response","176","272836","0.0-3.0-1.86","true"
"1045","ImagesCoins/10L110.png","188","test",",","image-keyboard-response","178","274386","0.0-3.0-1.87","true"
"1121","ImagesCoins/10R105.png","190","test",".","image-keyboard-response","180","276011","0.0-3.0-1.88","true"
"1150","ImagesCoins/10L105.png","188","test",",","image-keyboard-response","182","277665","0.0-3.0-1.89","true"
"2773","ImagesSoccer/VL90.png","190","test",".","image-keyboard-response","184","280943","0.0-4.0-1.0","true"
"1614","ImagesSoccer/VR102.5.png","190","test",".","image-keyboard-response","186","283062","0.0-4.0-1.1","true"
"1184","ImagesTennis/TL110.png","188","test",",","image-keyboard-response","188","284750","0.0-4.0-1.2","true"
"13149","ImagesDirect/VR95.png","188","test",",","image-keyboard-response","190","298403","0.0-4.0-1.3","true"
"11250","ImagesTennis/TL102.5.png","188","test",",","image-keyboard-response","192","310157","0.0-4.0-1.4","true"
"1897","ImagesSoccer/VR107.5.png","190","test",".","image-keyboard-response","194","312559","0.0-4.0-1.5","true"
"1893","ImagesSoccer/VL95.png","190","test",".","image-keyboard-response","196","314957","0.0-4.0-1.6","true"
"1256","ImagesTennis/TR97.5.png","188","test",",","image-keyboard-response","198","316718","0.0-4.0-1.7","true"
"818","ImagesDirect/VR97.5.png","190","test",",","image-keyboard-response","200","318041","0.0-4.0-1.8","false"
"686","ImagesDirect/VL107.5.png","188","test",",","image-keyboard-response","202","319231","0.0-4.0-1.9","true"
"1071","ImagesDirect/VR90.png","188","test",",","image-keyboard-response","204","320806","0.0-4.0-1.10","true"
"1652","ImagesDirect/VR100.png","190","test",".","image-keyboard-response","206","322963","0.0-4.0-1.11","true"
"14026","ImagesSoccer/VR95.png","188","test",",","image-keyboard-response","208","337494","0.0-4.0-1.12","true"
"807","ImagesDirect/VR110.png","190","test",".","image-keyboard-response","210","338804","0.0-4.0-1.13","true"
"963","ImagesTennis/TR92.5.png","188","test",",","image-keyboard-response","212","340272","0.0-4.0-1.14","true"
"9571","ImagesSoccer/VR97.5.png","188","test",",","image-keyboard-response","214","350348","0.0-4.0-1.15","true"
"1112","ImagesTennis/TR102.5.png","188","test",".","image-keyboard-response","216","351965","0.0-4.0-1.16","false"
"1441","ImagesSoccer/VL100.png","188","test",".","image-keyboard-response","218","353911","0.0-4.0-1.17","false"
"830","ImagesTennis/TR105.png","190","test",".","image-keyboard-response","220","355244","0.0-4.0-1.18","true"
"21293","ImagesSoccer/VL97.5.png","190","test",".","image-keyboard-response","222","377042","0.0-4.0-1.19","true"
"966","ImagesTennis/TR90.png","188","test",",","image-keyboard-response","224","378511","0.0-4.0-1.20","true"
"9390","ImagesTennis/TL107.5.png","188","test",",","image-keyboard-response","226","388406","0.0-4.0-1.21","true"
"1918","ImagesDirect/VL95.png","188","test",".","image-keyboard-response","228","390827","0.0-4.0-1.22","false"
"1147","ImagesSoccer/VL102.5.png","188","test",",","image-keyboard-response","230","392479","0.0-4.0-1.23","true"
"913","ImagesDirect/VR105.png","190","test",".","image-keyboard-response","232","393897","0.0-4.0-1.24","true"
"976","ImagesTennis/TR100.png","188","test",".","image-keyboard-response","234","395377","0.0-4.0-1.25","false"
"735","ImagesTennis/TR110.png","190","test",".","image-keyboard-response","236","396615","0.0-4.0-1.26","true"
"895","ImagesSoccer/VL105.png","188","test",",","image-keyboard-response","238","398015","0.0-4.0-1.27","true"
"3802","ImagesSoccer/VR100.png","188","test",".","image-keyboard-response","240","402321","0.0-4.0-1.28","false"
"991","ImagesSoccer/VR90.png","188","test",",","image-keyboard-response","242","403817","0.0-4.0-1.29","true"
"1039","ImagesTennis/TL100.png","190","test",".","image-keyboard-response","244","405359","0.0-4.0-1.30","true"
"628","ImagesTennis/TL92.5.png","190","test",".","image-keyboard-response","246","406491","0.0-4.0-1.31","true"
"3328","ImagesDirect/VL90.png","190","test",".","image-keyboard-response","248","410323","0.0-4.0-1.32","true"
"2639","ImagesSoccer/VR92.5.png","188","test",",","image-keyboard-response","250","413466","0.0-4.0-1.33","true"
"2205","ImagesDirect/VL97.5.png","188","test",".","image-keyboard-response","252","416176","0.0-4.0-1.34","false"
"625","ImagesTennis/TL95.png","190","test",".","image-keyboard-response","254","417305","0.0-4.0-1.35","true"
"783","ImagesDirect/VL100.png","188","test",".","image-keyboard-response","256","418593","0.0-4.0-1.36","false"
"1106","ImagesSoccer/VL107.5.png","188","test",",","image-keyboard-response","258","420204","0.0-4.0-1.37","true"
"1622","ImagesSoccer/VL110.png","188","test",",","image-keyboard-response","260","422331","0.0-4.0-1.38","true"
"979","ImagesDirect/VR92.5.png","188","test",",","image-keyboard-response","262","423815","0.0-4.0-1.39","true"
"714","ImagesTennis/TR95.png","188","test",",","image-keyboard-response","264","425033","0.0-4.0-1.40","true"
"718","ImagesTennis/TR107.5.png","190","test",".","image-keyboard-response","266","426254","0.0-4.0-1.41","true"
"1512","ImagesSoccer/VR105.png","190","test",".","image-keyboard-response","268","428271","0.0-4.0-1.42","true"
"1011","ImagesDirect/VL110.png","188","test",",","image-keyboard-response","270","429786","0.0-4.0-1.43","true"
"932","ImagesDirect/VR107.5.png","190","test",".","image-keyboard-response","272","431223","0.0-4.0-1.44","true"
"936","ImagesSoccer/VR110.png","190","test",".","image-keyboard-response","274","432663","0.0-4.0-1.45","true"
"707","ImagesDirect/VL105.png","188","test",",","image-keyboard-response","276","433874","0.0-4.0-1.46","true"
"801","ImagesDirect/VR102.5.png","190","test",".","image-keyboard-response","278","435179","0.0-4.0-1.47","true"
"1221","ImagesTennis/TL97.5.png","190","test",".","image-keyboard-response","280","436905","0.0-4.0-1.48","true"
"828","ImagesTennis/TL90.png","190","test",".","image-keyboard-response","282","438237","0.0-4.0-1.49","true"
"9925","ImagesTennis/TL105.png","188","test",",","image-keyboard-response","284","448667","0.0-4.0-1.50","true"
"8339","ImagesSoccer/VL92.5.png","190","test",".","image-keyboard-response","286","457510","0.0-4.0-1.51","true"
"1847","ImagesDirect/VL102.5.png","188","test",",","image-keyboard-response","288","459861","0.0-4.0-1.52","true"
"1130","ImagesDirect/VL92.5.png","190","test",".","image-keyboard-response","290","461495","0.0-4.0-1.53","true"
"828","ImagesTennis/TL110.png","188","test",",","image-keyboard-response","292","462828","0.0-4.0-1.54","true"
"1126","ImagesSoccer/VL107.5.png","188","test",",","image-keyboard-response","294","464457","0.0-4.0-1.55","true"
"857","ImagesSoccer/VL90.png","190","test",".","image-keyboard-response","296","465818","0.0-4.0-1.56","true"
"1178","ImagesSoccer/VL100.png","188","test",".","image-keyboard-response","298","467500","0.0-4.0-1.57","false"
"4101","ImagesDirect/VR97.5.png","190","test",",","image-keyboard-response","300","472105","0.0-4.0-1.58","false"
"1447","ImagesTennis/TR107.5.png","190","test",".","image-keyboard-response","302","474057","0.0-4.0-1.59","true"
"1540","ImagesSoccer/VL92.5.png","190","test",".","image-keyboard-response","304","476101","0.0-4.0-1.60","true"
"11694","ImagesTennis/TR100.png","190","test",".","image-keyboard-response","306","488299","0.0-4.0-1.61","true"
"2217","ImagesSoccer/VR92.5.png","188","test",",","image-keyboard-response","308","491021","0.0-4.0-1.62","true"
"730","ImagesSoccer/VR97.5.png","190","test",",","image-keyboard-response","310","492255","0.0-4.0-1.63","false"
"11560","ImagesTennis/TR105.png","190","test",".","image-keyboard-response","312","504320","0.0-4.0-1.64","true"
"819","ImagesDirect/VL107.5.png","188","test",",","image-keyboard-response","314","505644","0.0-4.0-1.65","true"
"663","ImagesTennis/TR110.png","190","test",".","image-keyboard-response","316","506811","0.0-4.0-1.66","true"
"581","ImagesSoccer/VR105.png","190","test",".","image-keyboard-response","318","507896","0.0-4.0-1.67","true"
"1426","ImagesTennis/TL97.5.png","190","test",".","image-keyboard-response","320","509827","0.0-4.0-1.68","true"
"747","ImagesSoccer/VL102.5.png","188","test",",","image-keyboard-response","322","511079","0.0-4.0-1.69","true"
"671","ImagesDirect/VR107.5.png","190","test",".","image-keyboard-response","324","512254","0.0-4.0-1.70","true"
"673","ImagesDirect/VR110.png","190","test",".","image-keyboard-response","326","513431","0.0-4.0-1.71","true"
"1134","ImagesDirect/VR90.png","188","test",",","image-keyboard-response","328","515070","0.0-4.0-1.72","true"
"9703","ImagesDirect/VL92.5.png","190","test",".","image-keyboard-response","330","525277","0.0-4.0-1.73","true"
"8624","ImagesDirect/VL90.png","190","test",".","image-keyboard-response","332","534405","0.0-4.0-1.74","true"
"950","ImagesDirect/VL102.5.png","188","test",",","image-keyboard-response","334","535859","0.0-4.0-1.75","true"
"1034","ImagesDirect/VL100.png","188","test",".","image-keyboard-response","336","537398","0.0-4.0-1.76","false"
"1885","ImagesTennis/TL107.5.png","188","test",",","image-keyboard-response","338","539787","0.0-4.0-1.77","true"
"1397","ImagesSoccer/VL97.5.png","188","test",".","image-keyboard-response","340","541687","0.0-4.0-1.78","false"
"11093","ImagesDirect/VR95.png","188","test",",","image-keyboard-response","342","553285","0.0-4.0-1.79","true"
"827","ImagesTennis/TL90.png","190","test",".","image-keyboard-response","344","554616","0.0-4.0-1.80","true"
"1644","ImagesSoccer/VR100.png","190","test",".","image-keyboard-response","346","556764","0.0-4.0-1.81","true"
"1850","ImagesSoccer/VL105.png","188","test",",","image-keyboard-response","348","559119","0.0-4.0-1.82","true"
"1726","ImagesTennis/TR102.5.png","190","test",".","image-keyboard-response","350","561350","0.0-4.0-1.83","true"
"2282","ImagesDirect/VR92.5.png","188","test",",","image-keyboard-response","352","564136","0.0-4.0-1.84","true"
"10637","ImagesSoccer/VR95.png","188","test",",","image-keyboard-response","354","575277","0.0-4.0-1.85","true"
"886","ImagesTennis/TR90.png","188","test",",","image-keyboard-response","356","576667","0.0-4.0-1.86","true"
"1462","ImagesTennis/TL105.png","188","test",",","image-keyboard-response","358","578634","0.0-4.0-1.87","true"
"626","ImagesDirect/VL110.png","188","test",",","image-keyboard-response","360","579765","0.0-4.0-1.88","true"
"1203","ImagesTennis/TL100.png","190","test",".","image-keyboard-response","362","581472","0.0-4.0-1.89","true"
"829","ImagesTennis/TL92.5.png","190","test",".","image-keyboard-response","364","582805","0.0-4.0-1.90","true"
"861","ImagesSoccer/VR107.5.png","190","test",".","image-keyboard-response","366","584169","0.0-4.0-1.91","true"
"838","ImagesDirect/VR102.5.png","190","test",".","image-keyboard-response","368","585512","0.0-4.0-1.92","true"
"836","ImagesSoccer/VR110.png","190","test",".","image-keyboard-response","370","586852","0.0-4.0-1.93","true"
"755","ImagesDirect/VL97.5.png","188","test",".","image-keyboard-response","372","588111","0.0-4.0-1.94","false"
"950","ImagesTennis/TR92.5.png","188","test",",","image-keyboard-response","374","589565","0.0-4.0-1.95","true"
"605","ImagesSoccer/VR102.5.png","190","test",".","image-keyboard-response","376","590674","0.0-4.0-1.96","true"
"888","ImagesDirect/VR105.png","190","test",".","image-keyboard-response","378","592066","0.0-4.0-1.97","true"
"832","ImagesDirect/VL105.png","188","test",",","image-keyboard-response","380","593402","0.0-4.0-1.98","true"
"731","ImagesTennis/TL95.png","190","test",".","image-keyboard-response","382","594637","0.0-4.0-1.99","true"
"931","ImagesTennis/TR97.5.png","188","test",",","image-keyboard-response","384","596072","0.0-4.0-1.100","true"
"812","ImagesTennis/TR95.png","188","test",",","image-keyboard-response","386","597387","0.0-4.0-1.101","true"
"8644","ImagesDirect/VL95.png","190","test",".","image-keyboard-response","388","606534","0.0-4.0-1.102","true"
"3262","ImagesTennis/TL102.5.png","188","test",",","image-keyboard-response","390","610301","0.0-4.0-1.103","true"
"867","ImagesSoccer/VL110.png","188","test",",","image-keyboard-response","392","611672","0.0-4.0-1.104","true"
"7893","ImagesSoccer/VL95.png","190","test",".","image-keyboard-response","394","620068","0.0-4.0-1.105","true"
"931","ImagesDirect/VR100.png","190","test",".","image-keyboard-response","396","621503","0.0-4.0-1.106","true"
"1884","ImagesSoccer/VR90.png","188","test",",","image-keyboard-response","398","623890","0.0-4.0-1.107","true"
"722","ImagesSoccer/VR110.png","190","test",".","image-keyboard-response","400","625117","0.0-4.0-1.108","true"
"8369","ImagesSoccer/VR95.png","188","test",",","image-keyboard-response","402","633990","0.0-4.0-1.109","true"
"7130","ImagesSoccer/VL95.png","190","test",".","image-keyboard-response","404","641624","0.0-4.0-1.110","true"
"1069","ImagesSoccer/VL105.png","188","test",",","image-keyboard-response","406","643197","0.0-4.0-1.111","true"
"842","ImagesTennis/TR110.png","190","test",".","image-keyboard-response","408","644543","0.0-4.0-1.112","true"
"8623","ImagesDirect/VR90.png","188","test",",","image-keyboard-response","410","653669","0.0-4.0-1.113","true"
"990","ImagesDirect/VR97.5.png","190","test",",","image-keyboard-response","412","655162","0.0-4.0-1.114","false"
"664","ImagesDirect/VR110.png","190","test",".","image-keyboard-response","414","656331","0.0-4.0-1.115","true"
"956","ImagesTennis/TR92.5.png","188","test",",","image-keyboard-response","416","657792","0.0-4.0-1.116","true"
"694","ImagesTennis/TL90.png","190","test",".","image-keyboard-response","418","658989","0.0-4.0-1.117","true"
"13507","ImagesDirect/VR92.5.png","188","test",",","image-keyboard-response","420","672999","0.0-4.0-1.118","true"
"2203","ImagesTennis/TL102.5.png","190","test",",","image-keyboard-response","422","675705","0.0-4.0-1.119","false"
"1243","ImagesTennis/TL110.png","188","test",",","image-keyboard-response","424","677452","0.0-4.0-1.120","true"
"961","ImagesDirect/VL90.png","190","test",".","image-keyboard-response","426","678917","0.0-4.0-1.121","true"
"855","ImagesSoccer/VR90.png","188","test",",","image-keyboard-response","428","680276","0.0-4.0-1.122","true"
"3376","ImagesTennis/TL100.png","190","test",".","image-keyboard-response","430","684156","0.0-4.0-1.123","true"
"1485","ImagesTennis/TR105.png","190","test",".","image-keyboard-response","432","686145","0.0-4.0-1.124","true"
"812","ImagesTennis/TR97.5.png","188","test",",","image-keyboard-response","434","687459","0.0-4.0-1.125","true"
"6971","ImagesTennis/TL105.png","188","test",",","image-keyboard-response","436","694935","0.0-4.0-1.126","true"
"6861","ImagesDirect/VR95.png","190","test",",","image-keyboard-response","438","702300","0.0-4.0-1.127","false"
"904","ImagesSoccer/VR92.5.png","188","test",",","image-keyboard-response","440","703709","0.0-4.0-1.128","true"
"1795","ImagesDirect/VL102.5.png","188","test",",","image-keyboard-response","442","706007","0.0-4.0-1.129","true"
"6273","ImagesSoccer/VR97.5.png","188","test",",","image-keyboard-response","444","712784","0.0-4.0-1.130","true"
"18495","ImagesSoccer/VL100.png","188","test",".","image-keyboard-response","446","731783","0.0-4.0-1.131","false"
"736","ImagesDirect/VL105.png","188","test",",","image-keyboard-response","448","733024","0.0-4.0-1.132","true"
"798","ImagesDirect/VR102.5.png","190","test",".","image-keyboard-response","450","734325","0.0-4.0-1.133","true"
"623","ImagesTennis/TR100.png","188","test",".","image-keyboard-response","452","735453","0.0-4.0-1.134","false"
"617","ImagesSoccer/VL110.png","188","test",",","image-keyboard-response","454","736572","0.0-4.0-1.135","true"
"1237","ImagesDirect/VL95.png","190","test",".","image-keyboard-response","456","738313","0.0-4.0-1.136","true"
"719","ImagesSoccer/VR107.5.png","190","test",".","image-keyboard-response","458","739537","0.0-4.0-1.137","true"
"1086","ImagesTennis/TL107.5.png","188","test",",","image-keyboard-response","460","741127","0.0-4.0-1.138","true"
"1204","ImagesDirect/VL97.5.png","188","test",".","image-keyboard-response","462","742836","0.0-4.0-1.139","false"
"1597","ImagesTennis/TR102.5.png","188","test",".","image-keyboard-response","464","744936","0.0-4.0-1.140","false"
"2181","ImagesTennis/TR107.5.png","190","test",".","image-keyboard-response","466","747621","0.0-4.0-1.141","true"
"2280","ImagesSoccer/VR100.png","190","test",".","image-keyboard-response","468","750406","0.0-4.0-1.142","true"
"7388","ImagesDirect/VR100.png","190","test",".","image-keyboard-response","470","758298","0.0-4.0-1.143","true"
"1397","ImagesTennis/TL95.png","190","test",".","image-keyboard-response","472","760199","0.0-4.0-1.144","true"
"1242","ImagesSoccer/VR105.png","190","test",".","image-keyboard-response","474","761945","0.0-4.0-1.145","true"
"740","ImagesSoccer/VL107.5.png","188","test",",","image-keyboard-response","476","763189","0.0-4.0-1.146","true"
"837","ImagesSoccer/VR102.5.png","190","test",".","image-keyboard-response","478","764529","0.0-4.0-1.147","true"
"706","ImagesDirect/VR107.5.png","190","test",".","image-keyboard-response","480","765740","0.0-4.0-1.148","true"
"2677","ImagesSoccer/VL92.5.png","190","test",".","image-keyboard-response","482","768920","0.0-4.0-1.149","true"
"756","ImagesDirect/VR105.png","190","test",".","image-keyboard-response","484","770181","0.0-4.0-1.150","true"
"2608","ImagesSoccer/VL102.5.png","188","test",",","image-keyboard-response","486","773293","0.0-4.0-1.151","true"
"803","ImagesSoccer/VL90.png","190","test",".","image-keyboard-response","488","774600","0.0-4.0-1.152","true"
"820","ImagesTennis/TL97.5.png","190","test",".","image-keyboard-response","490","775924","0.0-4.0-1.153","true"
"683","ImagesTennis/TR90.png","188","test",",","image-keyboard-response","492","777110","0.0-4.0-1.154","true"
"8666","ImagesSoccer/VL97.5.png","190","test",".","image-keyboard-response","494","786281","0.0-4.0-1.155","true"
"3825","ImagesDirect/VL92.5.png","190","test",".","image-keyboard-response","496","790609","0.0-4.0-1.156","true"
"777","ImagesDirect/VL107.5.png","188","test",",","image-keyboard-response","498","791890","0.0-4.0-1.157","true"
"715","ImagesTennis/TL92.5.png","190","test",".","image-keyboard-response","500","793109","0.0-4.0-1.158","true"
"685","ImagesDirect/VL100.png","188","test",".","image-keyboard-response","502","794297","0.0-4.0-1.159","false"
"703","ImagesTennis/TR95.png","188","test",",","image-keyboard-response","504","795505","0.0-4.0-1.160","true"
"620","ImagesDirect/VL110.png","188","test",",","image-keyboard-response","506","796629","0.0-4.0-1.161","true"
"622","ImagesDirect/VL102.5.png","188","test",",","image-keyboard-response","508","797756","0.0-4.0-1.162","true"
"627","ImagesTennis/TL92.5.png","190","test",".","image-keyboard-response","510","798887","0.0-4.0-1.163","true"
"3572","ImagesSoccer/VL95.png","188","test",".","image-keyboard-response","512","802963","0.0-4.0-1.164","false"
"877","ImagesSoccer/VR102.5.png","190","test",".","image-keyboard-response","514","804344","0.0-4.0-1.165","true"
"597","ImagesDirect/VL110.png","188","test",",","image-keyboard-response","516","805446","0.0-4.0-1.166","true"
"629","ImagesTennis/TL97.5.png","190","test",".","image-keyboard-response","518","806579","0.0-4.0-1.167","true"
"685","ImagesDirect/VR100.png","190","test",".","image-keyboard-response","520","807768","0.0-4.0-1.168","true"
"927","ImagesSoccer/VR100.png","190","test",".","image-keyboard-response","522","809198","0.0-4.0-1.169","true"
"2651","ImagesSoccer/VR92.5.png","188","test",",","image-keyboard-response","524","812353","0.0-4.0-1.170","true"
"11839","ImagesTennis/TR100.png","188","test",".","image-keyboard-response","526","824696","0.0-4.0-1.171","false"
"2862","ImagesTennis/TL107.5.png","188","test",",","image-keyboard-response","528","828062","0.0-4.0-1.172","true"
"6227","ImagesSoccer/VL97.5.png","188","test",".","image-keyboard-response","530","834792","0.0-4.0-1.173","false"
"1345","ImagesTennis/TL105.png","188","test",",","image-keyboard-response","532","836641","0.0-4.0-1.174","true"
"773","ImagesSoccer/VR107.5.png","190","test",".","image-keyboard-response","534","837919","0.0-4.0-1.175","true"
"897","ImagesTennis/TR95.png","188","test",",","image-keyboard-response","536","839319","0.0-4.0-1.176","true"
"674","ImagesTennis/TR107.5.png","190","test",".","image-keyboard-response","538","840497","0.0-4.0-1.177","true"
"2043","ImagesTennis/TR102.5.png","190","test",".","image-keyboard-response","540","843044","0.0-4.0-1.178","true"
"752","ImagesDirect/VL105.png","188","test",",","image-keyboard-response","542","844300","0.0-4.0-1.179","true"
"673","ImagesDirect/VR107.5.png","190","test",".","image-keyboard-response","544","845477","0.0-4.0-1.180","true"
"1187","ImagesSoccer/VL105.png","188","test",",","image-keyboard-response","546","847168","0.0-4.0-1.181","true"
"1188","ImagesSoccer/VR105.png","190","test",".","image-keyboard-response","548","848859","0.0-4.0-1.182","true"
"7619","ImagesSoccer/VL90.png","190","test",".","image-keyboard-response","550","856980","0.0-4.0-1.183","true"
"2060","ImagesTennis/TR90.png","188","test",",","image-keyboard-response","552","859545","0.0-4.0-1.184","true"
"795","ImagesTennis/TL90.png","190","test",".","image-keyboard-response","554","860844","0.0-4.0-1.185","true"
"717","ImagesDirect/VR97.5.png","190","test",",","image-keyboard-response","556","862065","0.0-4.0-1.186","false"
"720","ImagesDirect/VL97.5.png","188","test",".","image-keyboard-response","558","863288","0.0-4.0-1.187","false"
"665","ImagesDirect/VR110.png","190","test",".","image-keyboard-response","560","864458","0.0-4.0-1.188","true"
"1471","ImagesDirect/VR95.png","190","test",",","image-keyboard-response","562","866433","0.0-4.0-1.189","false"
"764","ImagesSoccer/VR90.png","188","test",",","image-keyboard-response","564","867701","0.0-4.0-1.190","true"
"654","ImagesSoccer/VL110.png","188","test",",","image-keyboard-response","566","868862","0.0-4.0-1.191","true"
"1233","ImagesTennis/TR110.png","190","test",".","image-keyboard-response","568","870599","0.0-4.0-1.192","true"
"5662","ImagesSoccer/VR95.png","188","test",",","image-keyboard-response","570","876765","0.0-4.0-1.193","true"
"998","ImagesTennis/TL95.png","190","test",".","image-keyboard-response","572","878268","0.0-4.0-1.194","true"
"795","ImagesDirect/VL95.png","188","test",".","image-keyboard-response","574","879567","0.0-4.0-1.195","false"
"891","ImagesSoccer/VL102.5.png","188","test",",","image-keyboard-response","576","880962","0.0-4.0-1.196","true"
"2638","ImagesTennis/TL110.png","188","test",",","image-keyboard-response","578","884104","0.0-4.0-1.197","true"
"1378","ImagesTennis/TR97.5.png","188","test",",","image-keyboard-response","580","885986","0.0-4.0-1.198","true"
"644","ImagesDirect/VR105.png","190","test",".","image-keyboard-response","582","887134","0.0-4.0-1.199","true"
"921","ImagesSoccer/VR110.png","190","test",".","image-keyboard-response","584","888559","0.0-4.0-1.200","true"
"1332","ImagesTennis/TL102.5.png","188","test",",","image-keyboard-response","586","890396","0.0-4.0-1.201","true"
"1512","ImagesSoccer/VR97.5.png","190","test",",","image-keyboard-response","588","892412","0.0-4.0-1.202","false"
"1021","ImagesDirect/VL90.png","190","test",".","image-keyboard-response","590","893937","0.0-4.0-1.203","true"
"1582","ImagesDirect/VR90.png","188","test",",","image-keyboard-response","592","896023","0.0-4.0-1.204","true"
"908","ImagesTennis/TR92.5.png","188","test",",","image-keyboard-response","594","897435","0.0-4.0-1.205","true"
"844","ImagesDirect/VL92.5.png","190","test",".","image-keyboard-response","596","898783","0.0-4.0-1.206","true"
"636","ImagesDirect/VL107.5.png","188","test",",","image-keyboard-response","598","899922","0.0-4.0-1.207","true"
"9517","ImagesSoccer/VL100.png","188","test",".","image-keyboard-response","600","909944","0.0-4.0-1.208","false"
"802","ImagesSoccer/VL107.5.png","188","test",",","image-keyboard-response","602","911249","0.0-4.0-1.209","true"
"807","ImagesSoccer/VL92.5.png","190","test",".","image-keyboard-response","604","912560","0.0-4.0-1.210","true"
"831","ImagesDirect/VR102.5.png","190","test",".","image-keyboard-response","606","913895","0.0-4.0-1.211","true"
"654","ImagesDirect/VL100.png","188","test",".","image-keyboard-response","608","915053","0.0-4.0-1.212","false"
"1996","ImagesTennis/TR105.png","188","test",".","image-keyboard-response","610","917553","0.0-4.0-1.213","false"
"2731","ImagesDirect/VR92.5.png","188","test",",","image-keyboard-response","612","920788","0.0-4.0-1.214","true"
"641","ImagesTennis/TL100.png","190","test",".","image-keyboard-response","614","921932","0.0-4.0-1.215","true"
"618","ImagesSoccer/VL107.5.png","188","test",",","image-keyboard-response","616","923054","0.0-4.0-1.216","true"
"762","ImagesTennis/TL95.png","190","test",".","image-keyboard-response","618","924319","0.0-4.0-1.217","true"
"1823","ImagesSoccer/VR102.5.png","190","test",".","image-keyboard-response","620","926647","0.0-4.0-1.218","true"
"1889","ImagesSoccer/VL92.5.png","190","test",".","image-keyboard-response","622","929040","0.0-4.0-1.219","true"
"1222","ImagesSoccer/VR105.png","190","test",".","image-keyboard-response","624","930766","0.0-4.0-1.220","true"
"8733","ImagesTennis/TR102.5.png","190","test",".","image-keyboard-response","626","940002","0.0-4.0-1.221","true"
"6711","ImagesDirect/VL92.5.png","190","test",".","image-keyboard-response","628","947218","0.0-4.0-1.222","true"
"691","ImagesTennis/TR95.png","188","test",",","image-keyboard-response","630","948412","0.0-4.0-1.223","true"
"823","ImagesSoccer/VL110.png","188","test",",","image-keyboard-response","632","949739","0.0-4.0-1.224","true"
"6769","ImagesSoccer/VR95.png","188","test",",","image-keyboard-response","634","957012","0.0-4.0-1.225","true"
"1637","ImagesTennis/TL105.png","188","test",",","image-keyboard-response","636","959152","0.0-4.0-1.226","true"
"922","ImagesTennis/TL97.5.png","190","test",".","image-keyboard-response","638","960578","0.0-4.0-1.227","true"
"709","ImagesDirect/VL100.png","188","test",".","image-keyboard-response","640","961791","0.0-4.0-1.228","false"
"512","ImagesDirect/VR102.5.png","190","test",".","image-keyboard-response","642","962808","0.0-4.0-1.229","true"
"1063","ImagesDirect/VR95.png","190","test",",","image-keyboard-response","644","964375","0.0-4.0-1.230","false"
"8953","ImagesSoccer/VL97.5.png","190","test",".","image-keyboard-response","646","973832","0.0-4.0-1.231","true"
"1090","ImagesTennis/TR107.5.png","188","test",".","image-keyboard-response","648","975425","0.0-4.0-1.232","false"
"933","ImagesSoccer/VR90.png","188","test",",","image-keyboard-response","650","976862","0.0-4.0-1.233","true"
"670","ImagesTennis/TL90.png","190","test",".","image-keyboard-response","652","978036","0.0-4.0-1.234","true"
"812","ImagesDirect/VL105.png","188","test",",","image-keyboard-response","654","979352","0.0-4.0-1.235","true"
"1138","ImagesSoccer/VL95.png","190","test",".","image-keyboard-response","656","980995","0.0-4.0-1.236","true"
"699","ImagesSoccer/VL100.png","188","test",".","image-keyboard-response","658","982198","0.0-4.0-1.237","false"
"647","ImagesTennis/TR90.png","188","test",",","image-keyboard-response","660","983348","0.0-4.0-1.238","true"
"878","ImagesSoccer/VR92.5.png","188","test",",","image-keyboard-response","662","984729","0.0-4.0-1.239","true"
"749","ImagesSoccer/VR110.png","190","test",".","image-keyboard-response","664","985982","0.0-4.0-1.240","true"
"1187","ImagesDirect/VL97.5.png","188","test",".","image-keyboard-response","666","987673","0.0-4.0-1.241","false"
"689","ImagesDirect/VR107.5.png","190","test",".","image-keyboard-response","668","988866","0.0-4.0-1.242","true"
"508","ImagesDirect/VR97.5.png","190","test",",","image-keyboard-response","670","989878","0.0-4.0-1.243","false"
"5257","ImagesSoccer/VR100.png","188","test",".","image-keyboard-response","672","995639","0.0-4.0-1.244","false"
"987","ImagesTennis/TL110.png","188","test",",","image-keyboard-response","674","997131","0.0-4.0-1.245","true"
"617","ImagesSoccer/VR107.5.png","190","test",".","image-keyboard-response","676","998251","0.0-4.0-1.246","true"
"965","ImagesTennis/TR97.5.png","188","test",",","image-keyboard-response","678","999721","0.0-4.0-1.247","true"
"3122","ImagesDirect/VR90.png","188","test",",","image-keyboard-response","680","1003348","0.0-4.0-1.248","true"
"1899","ImagesDirect/VL90.png","190","test",".","image-keyboard-response","682","1005754","0.0-4.0-1.249","true"
"760","ImagesDirect/VL107.5.png","188","test",",","image-keyboard-response","684","1007018","0.0-4.0-1.250","true"
"1478","ImagesTennis/TL107.5.png","188","test",",","image-keyboard-response","686","1009000","0.0-4.0-1.251","true"
"628","ImagesDirect/VL110.png","188","test",",","image-keyboard-response","688","1010133","0.0-4.0-1.252","true"
"2144","ImagesDirect/VL95.png","190","test",".","image-keyboard-response","690","1012781","0.0-4.0-1.253","true"
"656","ImagesTennis/TR92.5.png","188","test",",","image-keyboard-response","692","1013942","0.0-4.0-1.254","true"
"542","ImagesTennis/TL100.png","190","test",".","image-keyboard-response","694","1014987","0.0-4.0-1.255","true"
"939","ImagesTennis/TR110.png","190","test",".","image-keyboard-response","696","1016430","0.0-4.0-1.256","true"
"769","ImagesDirect/VR105.png","190","test",".","image-keyboard-response","698","1017702","0.0-4.0-1.257","true"
"707","ImagesTennis/TL102.5.png","190","test",",","image-keyboard-response","700","1018912","0.0-4.0-1.258","false"
"625","ImagesSoccer/VL105.png","188","test",",","image-keyboard-response","702","1020041","0.0-4.0-1.259","true"
"856","ImagesSoccer/VL102.5.png","188","test",",","image-keyboard-response","704","1021400","0.0-4.0-1.260","true"
"839","ImagesTennis/TR105.png","190","test",".","image-keyboard-response","706","1022743","0.0-4.0-1.261","true"
"648","ImagesTennis/TR100.png","188","test",".","image-keyboard-response","708","1023895","0.0-4.0-1.262","false"
"614","ImagesDirect/VR92.5.png","190","test",",","image-keyboard-response","710","1025013","0.0-4.0-1.263","false"
"863","ImagesSoccer/VL90.png","190","test",".","image-keyboard-response","712","1026380","0.0-4.0-1.264","true"
"779","ImagesDirect/VR100.png","190","test",".","image-keyboard-response","714","1027663","0.0-4.0-1.265","true"
"510","ImagesDirect/VR110.png","190","test",".","image-keyboard-response","716","1028676","0.0-4.0-1.266","true"
"707","ImagesDirect/VL102.5.png","188","test",",","image-keyboard-response","718","1029890","0.0-4.0-1.267","true"
"951","ImagesSoccer/VR97.5.png","188","test",",","image-keyboard-response","720","1031345","0.0-4.0-1.268","true"
"628","ImagesTennis/TL92.5.png","190","test",".","image-keyboard-response","722","1032478","0.0-4.0-1.269","true"
