"rt","stimulus","key_press","test_part","correct_response","trial_type","trial_index","time_elapsed","internal_node_id","correct"
"1274","ImagesSoccer/VR92.5.png","188","test",",","image-keyboard-response","4","20471","0.0-3.0-1.0","true"
"1393","ImagesDirect/VL102.5.png","188","test",",","image-keyboard-response","6","22379","0.0-3.0-1.1","true"
"990","ImagesDirect/VR100.png","190","test",".","image-keyboard-response","8","23883","0.0-3.0-1.2","true"
"937","ImagesSoccer/VR100.png","190","test",".","image-keyboard-response","10","25328","0.0-3.0-1.3","true"
"1009","ImagesSoccer/VL92.5.png","190","test",".","image-keyboard-response","12","26842","0.0-3.0-1.4","true"
"1618","ImagesDirect/VL97.5.png","190","test",".","image-keyboard-response","14","28969","0.0-3.0-1.5","true"
"629","ImagesDirect/VR102.5.png","190","test",".","image-keyboard-response","16","30112","0.0-3.0-1.6","true"
"658","ImagesTennis/TR110.png","190","test",".","image-keyboard-response","18","31286","0.0-3.0-1.7","true"
"643","ImagesTennis/TR92.5.png","188","test",",","image-keyboard-response","20","32442","0.0-3.0-1.8","true"
"542","ImagesSoccer/VL102.5.png","190","test",",","image-keyboard-response","22","33499","0.0-3.0-1.9","false"
"523","ImagesDirect/VR97.5.png","190","test",",","image-keyboard-response","24","34525","0.0-3.0-1.10","false"
"499","ImagesDirect/VR105.png","190","test",".","image-keyboard-response","26","35537","0.0-3.0-1.11","true"
"616","ImagesTennis/TR107.5.png","190","test",".","image-keyboard-response","28","36678","0.0-3.0-1.12","true"
"577","ImagesDirect/VL107.5.png","188","test",",","image-keyboard-response","30","37765","0.0-3.0-1.13","true"
"574","ImagesDirect/VR90.png","190","test",",","image-keyboard-response","32","38844","0.0-3.0-1.14","false"
"558","ImagesTennis/TR102.5.png","190","test",".","image-keyboard-response","34","39911","0.0-3.0-1.15","true"
"636","ImagesSoccer/VL100.png","190","test",".","image-keyboard-response","36","41059","0.0-3.0-1.16","true"
"501","ImagesTennis/TL90.png","190","test",".","image-keyboard-response","38","42077","0.0-3.0-1.17","true"
"588","ImagesTennis/TL102.5.png","190","test",",","image-keyboard-response","40","43195","0.0-3.0-1.18","false"
"648","ImagesTennis/TL100.png","190","test",".","image-keyboard-response","42","44353","0.0-3.0-1.19","true"
"737","ImagesTennis/TL107.5.png","188","test",",","image-keyboard-response","44","45607","0.0-3.0-1.20","true"
"581","ImagesSoccer/VR90.png","190","test",",","image-keyboard-response","46","46720","0.0-3.0-1.21","false"
"598","ImagesDirect/VR107.5.png","190","test",".","image-keyboard-response","48","47831","0.0-3.0-1.22","true"
"541","ImagesDirect/VR110.png","190","test",".","image-keyboard-response","50","48878","0.0-3.0-1.23","true"
"552","ImagesSoccer/VR107.5.png","190","test",".","image-keyboard-response","52","49943","0.0-3.0-1.24","true"
"643","ImagesSoccer/VR105.png","188","test",".","image-keyboard-response","54","51095","0.0-3.0-1.25","false"
"648","ImagesDirect/VL95.png","190","test",".","image-keyboard-response","56","52250","0.0-3.0-1.26","true"
"641","ImagesDirect/VL105.png","188","test",",","image-keyboard-response","58","53396","0.0-3.0-1.27","true"
"568","ImagesTennis/TR95.png","190","test",",","image-keyboard-response","60","54475","0.0-3.0-1.28","false"
"569","ImagesTennis/TL95.png","190","test",".","image-keyboard-response","62","55550","0.0-3.0-1.29","true"
"645","ImagesTennis/TR97.5.png","188","test",",","image-keyboard-response","64","56700","0.0-3.0-1.30","true"
"604","ImagesDirect/VL90.png","190","test",".","image-keyboard-response","66","57810","0.0-3.0-1.31","true"
"545","ImagesSoccer/VR102.5.png","190","test",".","image-keyboard-response","68","58859","0.0-3.0-1.32","true"
"591","ImagesTennis/TL97.5.png","188","test",".","image-keyboard-response","70","59965","0.0-3.0-1.33","false"
"682","ImagesSoccer/VL97.5.png","190","test",".","image-keyboard-response","72","61172","0.0-3.0-1.34","true"
"522","ImagesSoccer/VR95.png","190","test",",","image-keyboard-response","74","62205","0.0-3.0-1.35","false"
"641","ImagesSoccer/VL95.png","190","test",".","image-keyboard-response","76","63359","0.0-3.0-1.36","true"
"574","ImagesDirect/VR92.5.png","190","test",",","image-keyboard-response","78","64437","0.0-3.0-1.37","false"
"759","ImagesDirect/VR95.png","190","test",",","image-keyboard-response","80","65702","0.0-3.0-1.38","false"
"678","ImagesSoccer/VL107.5.png","188","test",",","image-keyboard-response","82","66896","0.0-3.0-1.39","true"
"532","ImagesTennis/TL92.5.png","190","test",".","image-keyboard-response","84","67937","0.0-3.0-1.40","true"
"497","ImagesSoccer/VL110.png","188","test",",","image-keyboard-response","86","68941","0.0-3.0-1.41","true"
"483","ImagesSoccer/VR97.5.png","190","test",",","image-keyboard-response","88","69935","0.0-3.0-1.42","false"
"777","ImagesTennis/TL105.png","188","test",",","image-keyboard-response","90","71217","0.0-3.0-1.43","true"
"543","ImagesSoccer/VL90.png","190","test",".","image-keyboard-response","92","72269","0.0-3.0-1.44","true"
"598","ImagesDirect/VL100.png","188","test",".","image-keyboard-response","94","73378","0.0-3.0-1.45","false"
"591","ImagesDirect/VL110.png","188","test",",","image-keyboard-response","96","74473","0.0-3.0-1.46","true"
"509","ImagesTennis/TR90.png","190","test",",","image-keyboard-response","98","75496","0.0-3.0-1.47","false"
"462","ImagesTennis/TR105.png","190","test",".","image-keyboard-response","100","76471","0.0-3.0-1.48","true"
"494","ImagesDirect/VL92.5.png","190","test",".","image-keyboard-response","102","77487","0.0-3.0-1.49","true"
"626","ImagesSoccer/VL105.png","188","test",",","image-keyboard-response","104","78625","0.0-3.0-1.50","true"
"636","ImagesTennis/TL110.png","188","test",",","image-keyboard-response","106","79778","0.0-3.0-1.51","true"
"475","ImagesTennis/TR100.png","190","test",".","image-keyboard-response","108","80762","0.0-3.0-1.52","true"
"494","ImagesSoccer/VR110.png","190","test",".","image-keyboard-response","110","81773","0.0-3.0-1.53","true"
"558","ImagesDirect/VL97.5.png","190","test",".","image-keyboard-response","112","82838","0.0-3.0-1.54","true"
"521","ImagesDirect/VL95.png","190","test",".","image-keyboard-response","114","83863","0.0-3.0-1.55","true"
"507","ImagesDirect/VR90.png","190","test",",","image-keyboard-response","116","84883","0.0-3.0-1.56","false"
"666","ImagesSoccer/VL102.5.png","188","test",",","image-keyboard-response","118","86055","0.0-3.0-1.57","true"
"736","ImagesSoccer/VL100.png","188","test",".","image-keyboard-response","120","87295","0.0-3.0-1.58","false"
"565","ImagesDirect/VR102.5.png","190","test",".","image-keyboard-response","122","88369","0.0-3.0-1.59","true"
"828","ImagesSoccer/VL95.png","190","test",".","image-keyboard-response","124","89709","0.0-3.0-1.60","true"
"800","ImagesSoccer/VR102.5.png","190","test",".","image-keyboard-response","126","91015","0.0-3.0-1.61","true"
"465","ImagesTennis/TL105.png","188","test",",","image-keyboard-response","128","91997","0.0-3.0-1.62","true"
"428","ImagesTennis/TR97.5.png","190","test",",","image-keyboard-response","130","92930","0.0-3.0-1.63","false"
"533","ImagesDirect/VL105.png","188","test",",","image-keyboard-response","132","93975","0.0-3.0-1.64","true"
"459","ImagesTennis/TR95.png","190","test",",","image-keyboard-response","134","94944","0.0-3.0-1.65","false"
"267","ImagesDirect/VR95.png","190","test",",","image-keyboard-response","136","95718","0.0-3.0-1.66","false"
"105","ImagesSoccer/VR95.png","190","test",",","image-keyboard-response","138","96327","0.0-3.0-1.67","false"
"513","ImagesSoccer/VR100.png","188","test",".","image-keyboard-response","140","97355","0.0-3.0-1.68","false"
"262","ImagesDirect/VR97.5.png","188","test",",","image-keyboard-response","142","98134","0.0-3.0-1.69","true"
"147","ImagesSoccer/VL90.png","190","test",".","image-keyboard-response","144","98789","0.0-3.0-1.70","true"
"95","ImagesTennis/TR100.png","188","test",".","image-keyboard-response","146","99397","0.0-3.0-1.71","false"
"131","ImagesTennis/TR107.5.png","188","test",".","image-keyboard-response","148","100034","0.0-3.0-1.72","false"
"171","ImagesDirect/VL92.5.png","190","test",".","image-keyboard-response","150","100710","0.0-3.0-1.73","true"
"212","ImagesSoccer/VR90.png","190","test",",","image-keyboard-response","152","101434","0.0-3.0-1.74","false"
"67","ImagesSoccer/VL97.5.png","188","test",".","image-keyboard-response","154","102013","0.0-3.0-1.75","false"
"76","ImagesSoccer/VR97.5.png","188","test",",","image-keyboard-response","156","102599","0.0-3.0-1.76","true"
"270","ImagesSoccer/VL107.5.png","190","test",",","image-keyboard-response","158","103384","0.0-3.0-1.77","false"
"4","ImagesDirect/VR92.5.png","188","test",",","image-keyboard-response","160","103900","0.0-3.0-1.78","true"
"166","ImagesSoccer/VR107.5.png","190","test",".","image-keyboard-response","162","104570","0.0-3.0-1.79","true"
"116","ImagesTennis/TL107.5.png","188","test",",","image-keyboard-response","164","105201","0.0-3.0-1.80","true"
"107","ImagesDirect/VL100.png","190","test",".","image-keyboard-response","166","105821","0.0-3.0-1.81","true"
"119","ImagesTennis/TR105.png","188","test",".","image-keyboard-response","168","106448","0.0-3.0-1.82","false"
"129","ImagesDirect/VR107.5.png","188","test",".","image-keyboard-response","170","107085","0.0-3.0-1.83","false"
"89","ImagesSoccer/VR92.5.png","188","test",",","image-keyboard-response","172","107679","0.0-3.0-1.84","true"
"156","ImagesTennis/TL95.png","190","test",".","image-keyboard-response","174","108352","0.0-3.0-1.85","true"
"128","ImagesSoccer/VL110.png","190","test",",","image-keyboard-response","176","108993","0.0-3.0-1.86","false"
"47","ImagesDirect/VR105.png","188","test",".","image-keyboard-response","178","109551","0.0-3.0-1.87","false"
"182","ImagesDirect/VL110.png","188","test",",","image-keyboard-response","180","110237","0.0-3.0-1.88","true"
"31","ImagesTennis/TL97.5.png","190","test",".","image-keyboard-response","182","110776","0.0-3.0-1.89","true"
"209","ImagesDirect/VL102.5.png","188","test",",","image-keyboard-response","184","111493","0.0-3.0-1.90","true"
"171","ImagesTennis/TL90.png","190","test",".","image-keyboard-response","186","112174","0.0-3.0-1.91","true"
"58","ImagesDirect/VL90.png","190","test",".","image-keyboard-response","188","112749","0.0-3.0-1.92","true"
"91","ImagesSoccer/VL105.png","188","test",",","image-keyboard-response","190","113352","0.0-3.0-1.93","true"
"80","ImagesTennis/TR92.5.png","190","test",",","image-keyboard-response","192","113948","0.0-3.0-1.94","false"
"47","ImagesTennis/TL100.png","188","test",".","image-keyboard-response","194","114509","0.0-3.0-1.95","false"
"37","ImagesDirect/VR100.png","188","test",".","image-keyboard-response","196","115062","0.0-3.0-1.96","false"
"560","ImagesTennis/TL110.png","190","test",",","image-keyboard-response","198","116135","0.0-3.0-1.97","false"
"106","ImagesSoccer/VR105.png","188","test",".","image-keyboard-response","200","116745","0.0-3.0-1.98","false"
"15","ImagesTennis/TR110.png","190","test",".","image-keyboard-response","202","117263","0.0-3.0-1.99","true"
"91","ImagesDirect/VR110.png","188","test",".","image-keyboard-response","204","117873","0.0-3.0-1.100","false"
"218","ImagesTennis/TR90.png","188","test",",","image-keyboard-response","206","118603","0.0-3.0-1.101","true"
"167","ImagesTennis/TR102.5.png","190","test",".","image-keyboard-response","208","119282","0.0-3.0-1.102","true"
"63","ImagesDirect/VL107.5.png","188","test",",","image-keyboard-response","210","119855","0.0-3.0-1.103","true"
"51","ImagesTennis/TL102.5.png","188","test",",","image-keyboard-response","212","120419","0.0-3.0-1.104","true"
"316","ImagesTennis/TL92.5.png","190","test",".","image-keyboard-response","214","121240","0.0-3.0-1.105","true"
"56","ImagesSoccer/VR110.png","188","test",".","image-keyboard-response","216","121812","0.0-3.0-1.106","false"
"198","ImagesSoccer/VL92.5.png","190","test",".","image-keyboard-response","218","122524","0.0-3.0-1.107","true"
"95","ImagesSoccer/VL105.png","188","test",",","image-keyboard-response","220","123129","0.0-3.0-1.108","true"
"140","ImagesDirect/VR102.5.png","190","test",".","image-keyboard-response","222","123783","0.0-3.0-1.109","true"
"276","ImagesTennis/TL95.png","190","test",".","image-keyboard-response","224","124562","0.0-3.0-1.110","true"
"254","ImagesTennis/TL90.png","190","test",".","image-keyboard-response","226","125320","0.0-3.0-1.111","true"
"528","ImagesDirect/VR95.png","190","test",",","image-keyboard-response","228","126365","0.0-3.0-1.112","false"
"249","ImagesSoccer/VR110.png","190","test",".","image-keyboard-response","230","127117","0.0-3.0-1.113","true"
"242","ImagesDirect/VL90.png","188","test",".","image-keyboard-response","232","127873","0.0-3.0-1.114","false"
"89","ImagesDirect/VR92.5.png","190","test",",","image-keyboard-response","234","128464","0.0-3.0-1.115","false"
"123","ImagesTennis/TL107.5.png","188","test",",","image-keyboard-response","236","129104","0.0-3.0-1.116","true"
"101","ImagesTennis/TR107.5.png","188","test",".","image-keyboard-response","238","129718","0.0-3.0-1.117","false"
"84","ImagesTennis/TL105.png","190","test",",","image-keyboard-response","240","130305","0.0-3.0-1.118","false"
"192","ImagesDirect/VR105.png","190","test",".","image-keyboard-response","242","131000","0.0-3.0-1.119","true"
"204","ImagesDirect/VL97.5.png","190","test",".","image-keyboard-response","244","131707","0.0-3.0-1.120","true"
"63","ImagesTennis/TL97.5.png","188","test",".","image-keyboard-response","246","132274","0.0-3.0-1.121","false"
"88","ImagesDirect/VL107.5.png","190","test",",","image-keyboard-response","248","132875","0.0-3.0-1.122","false"
"212","ImagesTennis/TR90.png","188","test",",","image-keyboard-response","250","133602","0.0-3.0-1.123","true"
"148","ImagesSoccer/VR105.png","190","test",".","image-keyboard-response","252","134260","0.0-3.0-1.124","true"
"173","ImagesSoccer/VL97.5.png","190","test",".","image-keyboard-response","254","134947","0.0-3.0-1.125","true"
"203","ImagesDirect/VL110.png","188","test",",","image-keyboard-response","256","135658","0.0-3.0-1.126","true"
"234","ImagesSoccer/VR90.png","188","test",",","image-keyboard-response","258","136417","0.0-3.0-1.127","true"
"580","ImagesSoccer/VL95.png","190","test",".","image-keyboard-response","260","137500","0.0-3.0-1.128","true"
"146","ImagesTennis/TR92.5.png","188","test",",","image-keyboard-response","262","138162","0.0-3.0-1.129","true"
"232","ImagesTennis/TR105.png","188","test",".","image-keyboard-response","264","138908","0.0-3.0-1.130","false"
"349","ImagesTennis/TL92.5.png","188","test",".","image-keyboard-response","266","139761","0.0-3.0-1.131","false"
"325","ImagesSoccer/VR92.5.png","190","test",",","image-keyboard-response","268","140589","0.0-3.0-1.132","false"
"131","ImagesTennis/TR102.5.png","188","test",".","image-keyboard-response","270","141235","0.0-3.0-1.133","false"
"95","ImagesTennis/TR97.5.png","188","test",",","image-keyboard-response","272","141838","0.0-3.0-1.134","true"
"389","ImagesDirect/VL102.5.png","190","test",",","image-keyboard-response","274","142739","0.0-3.0-1.135","false"
"81","ImagesSoccer/VL107.5.png","188","test",",","image-keyboard-response","276","143333","0.0-3.0-1.136","true"
"32","ImagesDirect/VR90.png","188","test",",","image-keyboard-response","278","143876","0.0-3.0-1.137","true"
"296","ImagesDirect/VL95.png","188","test",".","image-keyboard-response","280","144678","0.0-3.0-1.138","false"
"246","ImagesTennis/TL110.png","188","test",",","image-keyboard-response","282","145449","0.0-3.0-1.139","true"
"195","ImagesTennis/TL102.5.png","190","test",",","image-keyboard-response","284","146151","0.0-3.0-1.140","false"
"225","ImagesDirect/VR100.png","188","test",".","image-keyboard-response","286","146891","0.0-3.0-1.141","false"
"533","ImagesDirect/VR97.5.png","190","test",",","image-keyboard-response","288","147936","0.0-3.0-1.142","false"
"281","ImagesSoccer/VR107.5.png","188","test",".","image-keyboard-response","290","148728","0.0-3.0-1.143","false"
"125","ImagesSoccer/VL90.png","188","test",".","image-keyboard-response","292","149364","0.0-3.0-1.144","false"
"15","ImagesTennis/TR100.png","190","test",".","image-keyboard-response","294","149888","0.0-3.0-1.145","true"
"288","ImagesSoccer/VR97.5.png","188","test",",","image-keyboard-response","296","150693","0.0-3.0-1.146","true"
"291","ImagesSoccer/VL110.png","188","test",",","image-keyboard-response","298","151494","0.0-3.0-1.147","true"
"107","ImagesTennis/TR110.png","188","test",".","image-keyboard-response","300","152120","0.0-3.0-1.148","false"
"254","ImagesDirect/VL105.png","188","test",",","image-keyboard-response","302","152887","0.0-3.0-1.149","true"
"246","ImagesDirect/VL92.5.png","188","test",".","image-keyboard-response","304","153648","0.0-3.0-1.150","false"
"270","ImagesTennis/TR95.png","190","test",",","image-keyboard-response","306","154431","0.0-3.0-1.151","false"
"231","ImagesSoccer/VR102.5.png","188","test",".","image-keyboard-response","308","155166","0.0-3.0-1.152","false"
"284","ImagesDirect/VR107.5.png","190","test",".","image-keyboard-response","310","155968","0.0-3.0-1.153","true"
"194","ImagesSoccer/VR95.png","188","test",",","image-keyboard-response","312","156682","0.0-3.0-1.154","true"
"242","ImagesSoccer/VR100.png","190","test",".","image-keyboard-response","314","157444","0.0-3.0-1.155","true"
"221","ImagesSoccer/VL92.5.png","188","test",".","image-keyboard-response","316","158173","0.0-3.0-1.156","false"
"187","ImagesSoccer/VL100.png","190","test",".","image-keyboard-response","318","158874","0.0-3.0-1.157","true"
"179","ImagesDirect/VL100.png","188","test",".","image-keyboard-response","320","159570","0.0-3.0-1.158","false"
"164","ImagesSoccer/VL102.5.png","188","test",",","image-keyboard-response","322","160247","0.0-3.0-1.159","true"
"239","ImagesDirect/VR110.png","190","test",".","image-keyboard-response","324","160993","0.0-3.0-1.160","true"
"188","ImagesTennis/TL100.png","190","test",".","image-keyboard-response","326","161694","0.0-3.0-1.161","true"
"118","ImagesTennis/TR90.png","188","test",",","image-keyboard-response","328","162330","0.0-3.0-1.162","true"
"124","ImagesTennis/TR105.png","190","test",".","image-keyboard-response","330","162971","0.0-3.0-1.163","true"
"113","ImagesSoccer/VR107.5.png","188","test",".","image-keyboard-response","332","163594","0.0-3.0-1.164","false"
"163","ImagesTennis/TR102.5.png","190","test",".","image-keyboard-response","334","164268","0.0-3.0-1.165","true"
"147","ImagesTennis/TL102.5.png","190","test",",","image-keyboard-response","336","164926","0.0-3.0-1.166","false"
"181","ImagesTennis/TL105.png","190","test",",","image-keyboard-response","338","165614","0.0-3.0-1.167","false"
"101","ImagesTennis/TR97.5.png","188","test",",","image-keyboard-response","340","166218","0.0-3.0-1.168","true"
"133","ImagesSoccer/VL92.5.png","188","test",".","image-keyboard-response","342","166865","0.0-3.0-1.169","false"
"224","ImagesSoccer/VL107.5.png","190","test",",","image-keyboard-response","344","167593","0.0-3.0-1.170","false"
"202","ImagesSoccer/VR95.png","188","test",",","image-keyboard-response","346","168298","0.0-3.0-1.171","true"
"226","ImagesDirect/VR110.png","190","test",".","image-keyboard-response","348","169035","0.0-3.0-1.172","true"
"158","ImagesDirect/VR105.png","188","test",".","image-keyboard-response","350","169701","0.0-3.0-1.173","false"
"129","ImagesSoccer/VL105.png","188","test",",","image-keyboard-response","352","170338","0.0-3.0-1.174","true"
"129","ImagesTennis/TL100.png","188","test",".","image-keyboard-response","354","170984","0.0-3.0-1.175","false"
"283","ImagesSoccer/VR97.5.png","188","test",",","image-keyboard-response","356","171783","0.0-3.0-1.176","true"
"172","ImagesDirect/VR90.png","190","test",",","image-keyboard-response","358","172472","0.0-3.0-1.177","false"
"122","ImagesSoccer/VL110.png","188","test",",","image-keyboard-response","360","173102","0.0-3.0-1.178","true"
"289","ImagesDirect/VL110.png","190","test",",","image-keyboard-response","362","173894","0.0-3.0-1.179","false"
"288","ImagesSoccer/VL100.png","190","test",".","image-keyboard-response","364","174695","0.0-3.0-1.180","true"
"218","ImagesDirect/VL95.png","188","test",".","image-keyboard-response","366","175422","0.0-3.0-1.181","false"
"233","ImagesDirect/VL105.png","190","test",",","image-keyboard-response","368","176168","0.0-3.0-1.182","false"
"278","ImagesSoccer/VR102.5.png","190","test",".","image-keyboard-response","370","176954","0.0-3.0-1.183","true"
"14","ImagesDirect/VL107.5.png","188","test",",","image-keyboard-response","372","177482","0.0-3.0-1.184","true"
"139","ImagesTennis/TR100.png","190","test",".","image-keyboard-response","374","178126","0.0-3.0-1.185","true"
"166","ImagesTennis/TL95.png","188","test",".","image-keyboard-response","376","178799","0.0-3.0-1.186","false"
"75","ImagesDirect/VR95.png","190","test",",","image-keyboard-response","378","179379","0.0-3.0-1.187","false"
"227","ImagesDirect/VL92.5.png","188","test",".","image-keyboard-response","380","180116","0.0-3.0-1.188","false"
"176","ImagesTennis/TR110.png","190","test",".","image-keyboard-response","382","180804","0.0-3.0-1.189","true"
"180","ImagesDirect/VR97.5.png","188","test",",","image-keyboard-response","384","181499","0.0-3.0-1.190","true"
"233","ImagesSoccer/VL90.png","190","test",".","image-keyboard-response","386","182242","0.0-3.0-1.191","true"
"88","ImagesSoccer/VL97.5.png","190","test",".","image-keyboard-response","388","182838","0.0-3.0-1.192","true"
"101","ImagesDirect/VR102.5.png","188","test",".","image-keyboard-response","390","183452","0.0-3.0-1.193","false"
"85","ImagesSoccer/VR105.png","188","test",".","image-keyboard-response","392","184052","0.0-3.0-1.194","false"
"160","ImagesTennis/TR92.5.png","190","test",",","image-keyboard-response","394","184716","0.0-3.0-1.195","false"
"326","ImagesTennis/TL90.png","188","test",".","image-keyboard-response","396","185551","0.0-3.0-1.196","false"
"245","ImagesDirect/VR107.5.png","190","test",".","image-keyboard-response","398","186303","0.0-3.0-1.197","true"
"361","ImagesSoccer/VR100.png","190","test",".","image-keyboard-response","400","187180","0.0-3.0-1.198","true"
"553","ImagesTennis/TL97.5.png","190","test",".","image-keyboard-response","402","188249","0.0-3.0-1.199","true"
"311","ImagesDirect/VR100.png","188","test",".","image-keyboard-response","404","189069","0.0-3.0-1.200","false"
"360","ImagesTennis/TR107.5.png","190","test",".","image-keyboard-response","406","189946","0.0-3.0-1.201","true"
"145","ImagesDirect/VL97.5.png","188","test",".","image-keyboard-response","408","190606","0.0-3.0-1.202","false"
"114","ImagesSoccer/VL95.png","188","test",".","image-keyboard-response","410","191227","0.0-3.0-1.203","false"
"224","ImagesSoccer/VR90.png","190","test",",","image-keyboard-response","412","191965","0.0-3.0-1.204","false"
"339","ImagesTennis/TL92.5.png","190","test",".","image-keyboard-response","414","192818","0.0-3.0-1.205","true"
"243","ImagesDirect/VR92.5.png","188","test",",","image-keyboard-response","416","193571","0.0-3.0-1.206","true"
"270","ImagesDirect/VL102.5.png","188","test",",","image-keyboard-response","418","194351","0.0-3.0-1.207","true"
"262","ImagesDirect/VL100.png","190","test",".","image-keyboard-response","420","195120","0.0-3.0-1.208","true"
"283","ImagesSoccer/VR110.png","188","test",".","image-keyboard-response","422","195917","0.0-3.0-1.209","false"
"264","ImagesTennis/TL110.png","188","test",",","image-keyboard-response","424","196694","0.0-3.0-1.210","true"
"290","ImagesTennis/TR95.png","188","test",",","image-keyboard-response","426","197498","0.0-3.0-1.211","true"
"223","ImagesSoccer/VL102.5.png","190","test",",","image-keyboard-response","428","198231","0.0-3.0-1.212","false"
"263","ImagesDirect/VL90.png","190","test",".","image-keyboard-response","430","199008","0.0-3.0-1.213","true"
"233","ImagesSoccer/VR92.5.png","188","test",",","image-keyboard-response","432","199755","0.0-3.0-1.214","true"
"264","ImagesTennis/TL107.5.png","190","test",",","image-keyboard-response","434","200522","0.0-3.0-1.215","false"
"207","ImagesTennis/TR102.5.png","190","test",".","image-keyboard-response","436","201246","0.0-3.0-1.216","true"
"159","ImagesTennis/TR100.png","188","test",".","image-keyboard-response","438","201914","0.0-3.0-1.217","false"
"363","ImagesSoccer/VL92.5.png","190","test",".","image-keyboard-response","440","202781","0.0-3.0-1.218","true"
"125","ImagesDirect/VL95.png","188","test",".","image-keyboard-response","442","203420","0.0-3.0-1.219","false"
"161","ImagesDirect/VR95.png","188","test",",","image-keyboard-response","444","204085","0.0-3.0-1.220","true"
"290","ImagesSoccer/VR92.5.png","188","test",",","image-keyboard-response","446","204880","0.0-3.0-1.221","true"
"193","ImagesDirect/VL92.5.png","190","test",".","image-keyboard-response","448","205578","0.0-3.0-1.222","true"
"97","ImagesSoccer/VL97.5.png","188","test",".","image-keyboard-response","450","206195","0.0-3.0-1.223","false"
"255","ImagesSoccer/VL107.5.png","188","test",",","image-keyboard-response","452","206957","0.0-3.0-1.224","true"
"265","ImagesSoccer/VR97.5.png","188","test",",","image-keyboard-response","454","207733","0.0-3.0-1.225","true"
"207","ImagesTennis/TL100.png","190","test",".","image-keyboard-response","456","208445","0.0-3.0-1.226","true"
"243","ImagesSoccer/VR110.png","190","test",".","image-keyboard-response","458","209195","0.0-3.0-1.227","true"
"231","ImagesTennis/TR97.5.png","190","test",",","image-keyboard-response","460","209940","0.0-3.0-1.228","false"
"240","ImagesSoccer/VL95.png","190","test",".","image-keyboard-response","462","210684","0.0-3.0-1.229","true"
"162","ImagesSoccer/VL110.png","188","test",",","image-keyboard-response","464","211353","0.0-3.0-1.230","true"
"131","ImagesTennis/TL105.png","190","test",",","image-keyboard-response","466","211994","0.0-3.0-1.231","false"
"522","ImagesDirect/VL90.png","190","test",".","image-keyboard-response","468","213025","0.0-3.0-1.232","true"
"241","ImagesDirect/VR107.5.png","190","test",".","image-keyboard-response","470","213777","0.0-3.0-1.233","true"
"67","ImagesDirect/VR90.png","188","test",",","image-keyboard-response","472","214359","0.0-3.0-1.234","true"
"130","ImagesSoccer/VL105.png","190","test",",","image-keyboard-response","474","214998","0.0-3.0-1.235","false"
"51","ImagesDirect/VL100.png","188","test",".","image-keyboard-response","476","215557","0.0-3.0-1.236","false"
"31","ImagesTennis/TR110.png","188","test",".","image-keyboard-response","478","216096","0.0-3.0-1.237","false"
"106","ImagesTennis/TL92.5.png","188","test",".","image-keyboard-response","480","216708","0.0-3.0-1.238","false"
"60","ImagesSoccer/VR100.png","188","test",".","image-keyboard-response","482","217276","0.0-3.0-1.239","false"
"38","ImagesDirect/VL97.5.png","188","test",".","image-keyboard-response","484","217819","0.0-3.0-1.240","false"
"27","ImagesSoccer/VR102.5.png","188","test",".","image-keyboard-response","486","218362","0.0-3.0-1.241","false"
"62","ImagesDirect/VR110.png","188","test",".","image-keyboard-response","488","218936","0.0-3.0-1.242","false"
"83","ImagesSoccer/VL102.5.png","190","test",",","image-keyboard-response","490","219526","0.0-3.0-1.243","false"
"47","ImagesDirect/VL102.5.png","188","test",",","image-keyboard-response","492","220080","0.0-3.0-1.244","true"
"217","ImagesSoccer/VR107.5.png","190","test",".","image-keyboard-response","494","220805","0.0-3.0-1.245","true"
"51","ImagesTennis/TR107.5.png","190","test",".","image-keyboard-response","496","221369","0.0-3.0-1.246","true"
"83","ImagesDirect/VR105.png","188","test",".","image-keyboard-response","498","221956","0.0-3.0-1.247","false"
"54","ImagesSoccer/VL100.png","190","test",".","image-keyboard-response","500","222514","0.0-3.0-1.248","true"
"252","ImagesDirect/VR102.5.png","190","test",".","image-keyboard-response","502","223284","0.0-3.0-1.249","true"
"129","ImagesTennis/TL107.5.png","190","test",",","image-keyboard-response","504","223920","0.0-3.0-1.250","false"
"120","ImagesSoccer/VR95.png","188","test",",","image-keyboard-response","506","224555","0.0-3.0-1.251","true"
"127","ImagesTennis/TL110.png","188","test",",","image-keyboard-response","508","225191","0.0-3.0-1.252","true"
"41","ImagesDirect/VL110.png","190","test",",","image-keyboard-response","510","225743","0.0-3.0-1.253","false"
"82","ImagesTennis/TL102.5.png","188","test",",","image-keyboard-response","512","226339","0.0-3.0-1.254","true"
"110","ImagesTennis/TR95.png","188","test",",","image-keyboard-response","514","226960","0.0-3.0-1.255","true"
"142","ImagesDirect/VL105.png","190","test",",","image-keyboard-response","516","227614","0.0-3.0-1.256","false"
"95","ImagesDirect/VR97.5.png","190","test",",","image-keyboard-response","518","228223","0.0-3.0-1.257","false"
"103","ImagesTennis/TL90.png","190","test",".","image-keyboard-response","520","228837","0.0-3.0-1.258","true"
"86","ImagesTennis/TR92.5.png","188","test",",","image-keyboard-response","522","229434","0.0-3.0-1.259","true"
"97","ImagesTennis/TR90.png","190","test",",","image-keyboard-response","524","230044","0.0-3.0-1.260","false"
"90","ImagesSoccer/VR90.png","188","test",",","image-keyboard-response","526","230643","0.0-3.0-1.261","true"
"46","ImagesDirect/VR100.png","190","test",".","image-keyboard-response","528","231200","0.0-3.0-1.262","true"
"109","ImagesDirect/VL107.5.png","190","test",",","image-keyboard-response","530","231821","0.0-3.0-1.263","false"
"415","ImagesSoccer/VR105.png","188","test",".","image-keyboard-response","532","232753","0.0-3.0-1.264","false"
"257","ImagesTennis/TL97.5.png","190","test",".","image-keyboard-response","534","233521","0.0-3.0-1.265","true"
"112","ImagesTennis/TR105.png","188","test",".","image-keyboard-response","536","234148","0.0-3.0-1.266","false"
"83","ImagesTennis/TL95.png","188","test",".","image-keyboard-response","538","234744","0.0-3.0-1.267","false"
"111","ImagesSoccer/VL90.png","188","test",".","image-keyboard-response","540","235360","0.0-3.0-1.268","false"
"82","ImagesDirect/VR92.5.png","188","test",",","image-keyboard-response","542","235950","0.0-3.0-1.269","true"
"105","ImagesCoins/10R100.png","188","test",".","image-keyboard-response","544","236565","0.0-4.0-1.0","false"
"158","ImagesCoins/10L110.png","188","test",",","image-keyboard-response","546","237240","0.0-4.0-1.1","true"
"224","ImagesCoins/10R90.png","190","test",",","image-keyboard-response","548","237977","0.0-4.0-1.2","false"
"223","ImagesCoins/10R92.5.png","188","test",",","image-keyboard-response","550","238703","0.0-4.0-1.3","true"
"407","ImagesCoins/10L102.5.png","190","test",",","image-keyboard-response","552","239630","0.0-4.0-1.4","false"
"148","ImagesCoins/10L95.png","190","test",".","image-keyboard-response","554","240293","0.0-4.0-1.5","true"
"195","ImagesCoins/10R97.5.png","188","test",",","image-keyboard-response","556","240996","0.0-4.0-1.6","true"
"90","ImagesCoins/10R102.5.png","188","test",".","image-keyboard-response","558","241601","0.0-4.0-1.7","false"
"278","ImagesCoins/10L90.png","188","test",".","image-keyboard-response","560","242385","0.0-4.0-1.8","false"
"187","ImagesCoins/10R110.png","188","test",".","image-keyboard-response","562","243076","0.0-4.0-1.9","false"
"162","ImagesCoins/10R107.5.png","190","test",".","image-keyboard-response","564","243754","0.0-4.0-1.10","true"
"107","ImagesCoins/10L97.5.png","188","test",".","image-keyboard-response","566","244369","0.0-4.0-1.11","false"
"222","ImagesCoins/10L107.5.png","190","test",",","image-keyboard-response","568","245095","0.0-4.0-1.12","false"
"183","ImagesCoins/10L92.5.png","188","test",".","image-keyboard-response","570","245793","0.0-4.0-1.13","false"
"243","ImagesCoins/10L105.png","190","test",",","image-keyboard-response","572","246553","0.0-4.0-1.14","false"
"206","ImagesCoins/10R105.png","188","test",".","image-keyboard-response","574","247274","0.0-4.0-1.15","false"
"246","ImagesCoins/10R95.png","190","test",",","image-keyboard-response","576","248037","0.0-4.0-1.16","false"
"214","ImagesCoins/10L100.png","190","test",".","image-keyboard-response","578","248763","0.0-4.0-1.17","true"
"227","ImagesCoins/10L95.png","190","test",".","image-keyboard-response","580","249501","0.0-4.0-1.18","true"
"227","ImagesCoins/10L92.5.png","188","test",".","image-keyboard-response","582","250232","0.0-4.0-1.19","false"
"239","ImagesCoins/10R90.png","190","test",",","image-keyboard-response","584","250984","0.0-4.0-1.20","false"
"133","ImagesCoins/10R110.png","188","test",".","image-keyboard-response","586","251625","0.0-4.0-1.21","false"
"241","ImagesCoins/10L105.png","190","test",",","image-keyboard-response","588","252381","0.0-4.0-1.22","false"
"209","ImagesCoins/10R95.png","188","test",",","image-keyboard-response","590","253104","0.0-4.0-1.23","true"
"158","ImagesCoins/10L100.png","190","test",".","image-keyboard-response","592","253773","0.0-4.0-1.24","true"
"187","ImagesCoins/10R97.5.png","190","test",",","image-keyboard-response","594","254467","0.0-4.0-1.25","false"
"170","ImagesCoins/10L90.png","190","test",".","image-keyboard-response","596","255156","0.0-4.0-1.26","true"
"225","ImagesCoins/10R92.5.png","190","test",",","image-keyboard-response","598","255900","0.0-4.0-1.27","false"
"209","ImagesCoins/10R105.png","190","test",".","image-keyboard-response","600","256624","0.0-4.0-1.28","true"
"202","ImagesCoins/10R102.5.png","188","test",".","image-keyboard-response","602","257341","0.0-4.0-1.29","false"
"258","ImagesCoins/10L102.5.png","190","test",",","image-keyboard-response","604","258116","0.0-4.0-1.30","false"
"237","ImagesCoins/10L97.5.png","188","test",".","image-keyboard-response","606","258861","0.0-4.0-1.31","false"
"170","ImagesCoins/10L110.png","190","test",",","image-keyboard-response","608","259547","0.0-4.0-1.32","false"
"185","ImagesCoins/10R107.5.png","188","test",".","image-keyboard-response","610","260244","0.0-4.0-1.33","false"
"140","ImagesCoins/10L107.5.png","188","test",",","image-keyboard-response","612","260905","0.0-4.0-1.34","true"
"182","ImagesCoins/10R100.png","188","test",".","image-keyboard-response","614","261606","0.0-4.0-1.35","false"
"192","ImagesCoins/10L105.png","190","test",",","image-keyboard-response","616","262303","0.0-4.0-1.36","false"
"158","ImagesCoins/10R100.png","188","test",".","image-keyboard-response","618","262970","0.0-4.0-1.37","false"
"87","ImagesCoins/10R110.png","190","test",".","image-keyboard-response","620","263565","0.0-4.0-1.38","true"
"119","ImagesCoins/10R105.png","188","test",".","image-keyboard-response","622","264195","0.0-4.0-1.39","false"
"179","ImagesCoins/10R95.png","188","test",",","image-keyboard-response","624","264881","0.0-4.0-1.40","true"
"60","ImagesCoins/10L100.png","190","test",".","image-keyboard-response","626","265449","0.0-4.0-1.41","true"
"164","ImagesCoins/10R97.5.png","190","test",",","image-keyboard-response","628","266122","0.0-4.0-1.42","false"
"92","ImagesCoins/10L95.png","188","test",".","image-keyboard-response","630","266719","0.0-4.0-1.43","false"
"77","ImagesCoins/10L102.5.png","190","test",",","image-keyboard-response","632","267305","0.0-4.0-1.44","false"
"118","ImagesCoins/10R107.5.png","188","test",".","image-keyboard-response","634","267939","0.0-4.0-1.45","false"
"51","ImagesCoins/10L92.5.png","190","test",".","image-keyboard-response","636","268496","0.0-4.0-1.46","true"
"108","ImagesCoins/10L107.5.png","190","test",",","image-keyboard-response","638","269121","0.0-4.0-1.47","false"
"124","ImagesCoins/10R90.png","190","test",",","image-keyboard-response","640","269749","0.0-4.0-1.48","false"
"118","ImagesCoins/10L110.png","188","test",",","image-keyboard-response","642","270374","0.0-4.0-1.49","true"
"99","ImagesCoins/10R102.5.png","190","test",".","image-keyboard-response","644","270977","0.0-4.0-1.50","true"
"158","ImagesCoins/10R92.5.png","188","test",",","image-keyboard-response","646","271645","0.0-4.0-1.51","true"
"145","ImagesCoins/10L90.png","188","test",".","image-keyboard-response","648","272304","0.0-4.0-1.52","false"
"88","ImagesCoins/10L97.5.png","190","test",".","image-keyboard-response","650","272902","0.0-4.0-1.53","true"
"196","ImagesCoins/10L92.5.png","188","test",".","image-keyboard-response","652","273602","0.0-4.0-1.54","false"
"126","ImagesCoins/10R110.png","190","test",".","image-keyboard-response","654","274234","0.0-4.0-1.55","true"
"116","ImagesCoins/10L105.png","190","test",",","image-keyboard-response","656","274858","0.0-4.0-1.56","false"
"107","ImagesCoins/10R107.5.png","188","test",".","image-keyboard-response","658","275467","0.0-4.0-1.57","false"
"153","ImagesCoins/10R97.5.png","190","test",",","image-keyboard-response","660","276132","0.0-4.0-1.58","false"
"135","ImagesCoins/10R100.png","188","test",".","image-keyboard-response","662","276776","0.0-4.0-1.59","false"
"105","ImagesCoins/10L107.5.png","188","test",",","image-keyboard-response","664","277404","0.0-4.0-1.60","true"
"137","ImagesCoins/10L95.png","188","test",".","image-keyboard-response","666","278047","0.0-4.0-1.61","false"
"119","ImagesCoins/10L102.5.png","190","test",",","image-keyboard-response","668","278682","0.0-4.0-1.62","false"
"90","ImagesCoins/10R90.png","188","test",",","image-keyboard-response","670","279288","0.0-4.0-1.63","true"
"103","ImagesCoins/10L97.5.png","188","test",".","image-keyboard-response","672","279895","0.0-4.0-1.64","false"
"147","ImagesCoins/10R95.png","190","test",",","image-keyboard-response","674","280547","0.0-4.0-1.65","false"
"116","ImagesCoins/10R105.png","188","test",".","image-keyboard-response","676","281175","0.0-4.0-1.66","false"
"133","ImagesCoins/10R92.5.png","188","test",",","image-keyboard-response","678","281824","0.0-4.0-1.67","true"
"60","ImagesCoins/10R102.5.png","188","test",".","image-keyboard-response","680","282401","0.0-4.0-1.68","false"
"198","ImagesCoins/10L110.png","190","test",",","image-keyboard-response","682","283109","0.0-4.0-1.69","false"
"89","ImagesCoins/10L100.png","190","test",".","image-keyboard-response","684","283705","0.0-4.0-1.70","true"
"132","ImagesCoins/10L90.png","188","test",".","image-keyboard-response","686","284343","0.0-4.0-1.71","false"
"105","ImagesCoins/10L105.png","188","test",",","image-keyboard-response","688","284967","0.0-4.0-1.72","true"
"109","ImagesCoins/10L97.5.png","190","test",".","image-keyboard-response","690","285582","0.0-4.0-1.73","true"
"128","ImagesCoins/10L107.5.png","190","test",",","image-keyboard-response","692","286217","0.0-4.0-1.74","false"
"213","ImagesCoins/10R107.5.png","190","test",".","image-keyboard-response","694","286935","0.0-4.0-1.75","true"
"236","ImagesCoins/10L95.png","190","test",".","image-keyboard-response","696","287682","0.0-4.0-1.76","true"
"168","ImagesCoins/10R97.5.png","190","test",",","image-keyboard-response","698","288355","0.0-4.0-1.77","false"
"183","ImagesCoins/10L110.png","190","test",",","image-keyboard-response","700","289046","0.0-4.0-1.78","false"
"147","ImagesCoins/10R92.5.png","188","test",",","image-keyboard-response","702","289702","0.0-4.0-1.79","true"
"75","ImagesCoins/10R90.png","190","test",",","image-keyboard-response","704","290289","0.0-4.0-1.80","false"
"66","ImagesCoins/10R95.png","188","test",",","image-keyboard-response","706","290869","0.0-4.0-1.81","true"
"62","ImagesCoins/10R105.png","190","test",".","image-keyboard-response","708","291447","0.0-4.0-1.82","true"
"59","ImagesCoins/10L102.5.png","190","test",",","image-keyboard-response","710","292019","0.0-4.0-1.83","false"
"85","ImagesCoins/10R102.5.png","188","test",".","image-keyboard-response","712","292611","0.0-4.0-1.84","false"
"31","ImagesCoins/10L90.png","188","test",".","image-keyboard-response","714","293154","0.0-4.0-1.85","false"
"80","ImagesCoins/10R110.png","190","test",".","image-keyboard-response","716","293742","0.0-4.0-1.86","true"
"67","ImagesCoins/10L100.png","188","test",".","image-keyboard-response","718","294316","0.0-4.0-1.87","false"
"71","ImagesCoins/10R100.png","188","test",".","image-keyboard-response","720","294890","0.0-4.0-1.88","false"
"47","ImagesCoins/10L92.5.png","190","test",".","image-keyboard-response","722","295454","0.0-4.0-1.89","true"
