"rt","stimulus","key_press","test_part","correct_response","trial_type","trial_index","time_elapsed","internal_node_id","correct"
"2165","ImagesCoins/10L95.png","190","test",".","image-keyboard-response","4","23901","0.0-3.0-1.0","true"
"2057","ImagesCoins/10R107.5.png","190","test",".","image-keyboard-response","6","26461","0.0-3.0-1.1","true"
"1128","ImagesCoins/10L90.png","190","test",".","image-keyboard-response","8","28093","0.0-3.0-1.2","true"
"1657","ImagesCoins/10L105.png","188","test",",","image-keyboard-response","10","30261","0.0-3.0-1.3","true"
"1427","ImagesCoins/10R90.png","188","test",",","image-keyboard-response","12","32198","0.0-3.0-1.4","true"
"1370","ImagesCoins/10L110.png","188","test",",","image-keyboard-response","14","34077","0.0-3.0-1.5","true"
"1989","ImagesCoins/10R97.5.png","190","test",",","image-keyboard-response","16","36573","0.0-3.0-1.6","false"
"1081","ImagesCoins/10R100.png","190","test",".","image-keyboard-response","18","38165","0.0-3.0-1.7","true"
"2750","ImagesCoins/10R102.5.png","190","test",".","image-keyboard-response","20","41429","0.0-3.0-1.8","true"
"1905","ImagesCoins/10L102.5.png","190","test",",","image-keyboard-response","22","43845","0.0-3.0-1.9","false"
"838","ImagesCoins/10L92.5.png","190","test",".","image-keyboard-response","24","45197","0.0-3.0-1.10","true"
"935","ImagesCoins/10L107.5.png","188","test",",","image-keyboard-response","26","46637","0.0-3.0-1.11","true"
"1148","ImagesCoins/10R95.png","190","test",",","image-keyboard-response","28","48301","0.0-3.0-1.12","false"
"1030","ImagesCoins/10R105.png","190","test",".","image-keyboard-response","30","49845","0.0-3.0-1.13","true"
"1361","ImagesCoins/10L97.5.png","190","test",".","image-keyboard-response","32","51709","0.0-3.0-1.14","true"
"1392","ImagesCoins/10R92.5.png","188","test",",","image-keyboard-response","34","53605","0.0-3.0-1.15","true"
"2287","ImagesCoins/10L100.png","188","test",".","image-keyboard-response","36","56397","0.0-3.0-1.16","false"
"904","ImagesCoins/10R110.png","190","test",".","image-keyboard-response","38","57804","0.0-3.0-1.17","true"
"1104","ImagesCoins/10R102.5.png","190","test",".","image-keyboard-response","40","59421","0.0-3.0-1.18","true"
"808","ImagesCoins/10R105.png","190","test",".","image-keyboard-response","42","60732","0.0-3.0-1.19","true"
"758","ImagesCoins/10L110.png","188","test",",","image-keyboard-response","44","61997","0.0-3.0-1.20","true"
"2474","ImagesCoins/10R95.png","188","test",",","image-keyboard-response","46","64980","0.0-3.0-1.21","true"
"1082","ImagesCoins/10R92.5.png","188","test",",","image-keyboard-response","48","66573","0.0-3.0-1.22","true"
"2117","ImagesCoins/10L100.png","188","test",".","image-keyboard-response","50","69197","0.0-3.0-1.23","false"
"1104","ImagesCoins/10R110.png","190","test",".","image-keyboard-response","52","70812","0.0-3.0-1.24","true"
"1434","ImagesCoins/10R100.png","190","test",".","image-keyboard-response","54","72749","0.0-3.0-1.25","true"
"922","ImagesCoins/10R107.5.png","190","test",".","image-keyboard-response","56","74181","0.0-3.0-1.26","true"
"1189","ImagesCoins/10L90.png","190","test",".","image-keyboard-response","58","75884","0.0-3.0-1.27","true"
"1104","ImagesCoins/10L102.5.png","188","test",",","image-keyboard-response","60","77500","0.0-3.0-1.28","true"
"1227","ImagesCoins/10L97.5.png","190","test",".","image-keyboard-response","62","79237","0.0-3.0-1.29","true"
"2009","ImagesCoins/10R97.5.png","188","test",",","image-keyboard-response","64","81756","0.0-3.0-1.30","true"
"1346","ImagesCoins/10L107.5.png","188","test",",","image-keyboard-response","66","83605","0.0-3.0-1.31","true"
"801","ImagesCoins/10L92.5.png","190","test",".","image-keyboard-response","68","84909","0.0-3.0-1.32","true"
"1045","ImagesCoins/10L95.png","190","test",".","image-keyboard-response","70","86461","0.0-3.0-1.33","true"
"3103","ImagesCoins/10L105.png","188","test",",","image-keyboard-response","72","90068","0.0-3.0-1.34","true"
"1266","ImagesCoins/10R90.png","188","test",",","image-keyboard-response","74","91844","0.0-3.0-1.35","true"
"1349","ImagesCoins/10L100.png","190","test",".","image-keyboard-response","76","93709","0.0-3.0-1.36","true"
"804","ImagesCoins/10L92.5.png","190","test",".","image-keyboard-response","78","95021","0.0-3.0-1.37","true"
"928","ImagesCoins/10L110.png","188","test",",","image-keyboard-response","80","96461","0.0-3.0-1.38","true"
"739","ImagesCoins/10R95.png","190","test",",","image-keyboard-response","82","97708","0.0-3.0-1.39","false"
"822","ImagesCoins/10R105.png","190","test",".","image-keyboard-response","84","99044","0.0-3.0-1.40","true"
"1135","ImagesCoins/10R102.5.png","190","test",".","image-keyboard-response","86","100692","0.0-3.0-1.41","true"
"825","ImagesCoins/10L90.png","190","test",".","image-keyboard-response","88","102020","0.0-3.0-1.42","true"
"905","ImagesCoins/10R90.png","188","test",",","image-keyboard-response","90","103428","0.0-3.0-1.43","true"
"1131","ImagesCoins/10L97.5.png","190","test",".","image-keyboard-response","92","105061","0.0-3.0-1.44","true"
"1157","ImagesCoins/10L107.5.png","188","test",",","image-keyboard-response","94","106724","0.0-3.0-1.45","true"
"938","ImagesCoins/10L102.5.png","188","test",",","image-keyboard-response","96","108172","0.0-3.0-1.46","true"
"1388","ImagesCoins/10R92.5.png","188","test",",","image-keyboard-response","98","110069","0.0-3.0-1.47","true"
"1024","ImagesCoins/10L105.png","188","test",",","image-keyboard-response","100","111604","0.0-3.0-1.48","true"
"1244","ImagesCoins/10R97.5.png","188","test",",","image-keyboard-response","102","113365","0.0-3.0-1.49","true"
"954","ImagesCoins/10R110.png","190","test",".","image-keyboard-response","104","114836","0.0-3.0-1.50","true"
"1715","ImagesCoins/10R100.png","190","test",".","image-keyboard-response","106","117053","0.0-3.0-1.51","true"
"1902","ImagesCoins/10R107.5.png","190","test",".","image-keyboard-response","108","119468","0.0-3.0-1.52","true"
"889","ImagesCoins/10L95.png","190","test",".","image-keyboard-response","110","120869","0.0-3.0-1.53","true"
"810","ImagesCoins/10R92.5.png","188","test",",","image-keyboard-response","112","122181","0.0-3.0-1.54","true"
"1703","ImagesCoins/10R107.5.png","190","test",".","image-keyboard-response","114","124389","0.0-3.0-1.55","true"
"1099","ImagesCoins/10L105.png","188","test",",","image-keyboard-response","116","125989","0.0-3.0-1.56","true"
"906","ImagesCoins/10L97.5.png","190","test",".","image-keyboard-response","118","127397","0.0-3.0-1.57","true"
"1105","ImagesCoins/10R90.png","188","test",",","image-keyboard-response","120","129004","0.0-3.0-1.58","true"
"857","ImagesCoins/10L95.png","190","test",".","image-keyboard-response","122","130372","0.0-3.0-1.59","true"
"746","ImagesCoins/10R105.png","190","test",".","image-keyboard-response","124","131620","0.0-3.0-1.60","true"
"872","ImagesCoins/10R110.png","190","test",".","image-keyboard-response","126","133004","0.0-3.0-1.61","true"
"1246","ImagesCoins/10R97.5.png","188","test",",","image-keyboard-response","128","134757","0.0-3.0-1.62","true"
"989","ImagesCoins/10L107.5.png","188","test",",","image-keyboard-response","130","136260","0.0-3.0-1.63","true"
"1523","ImagesCoins/10L102.5.png","188","test",",","image-keyboard-response","132","138301","0.0-3.0-1.64","true"
"1480","ImagesCoins/10L100.png","188","test",".","image-keyboard-response","134","140292","0.0-3.0-1.65","false"
"832","ImagesCoins/10L92.5.png","190","test",".","image-keyboard-response","136","141636","0.0-3.0-1.66","true"
"876","ImagesCoins/10R102.5.png","190","test",".","image-keyboard-response","138","143028","0.0-3.0-1.67","true"
"852","ImagesCoins/10L110.png","188","test",",","image-keyboard-response","140","144396","0.0-3.0-1.68","true"
"1140","ImagesCoins/10L90.png","190","test",".","image-keyboard-response","142","146044","0.0-3.0-1.69","true"
"1530","ImagesCoins/10R100.png","190","test",".","image-keyboard-response","144","148076","0.0-3.0-1.70","true"
"907","ImagesCoins/10R95.png","190","test",",","image-keyboard-response","146","149485","0.0-3.0-1.71","false"
"1805","ImagesCoins/10L107.5.png","188","test",",","image-keyboard-response","148","151796","0.0-3.0-1.72","true"
"649","ImagesCoins/10R110.png","190","test",".","image-keyboard-response","150","152948","0.0-3.0-1.73","true"
"1161","ImagesCoins/10R95.png","188","test",",","image-keyboard-response","152","154612","0.0-3.0-1.74","true"
"1314","ImagesCoins/10L90.png","190","test",".","image-keyboard-response","154","156428","0.0-3.0-1.75","true"
"1984","ImagesCoins/10R97.5.png","188","test",",","image-keyboard-response","156","158917","0.0-3.0-1.76","true"
"842","ImagesCoins/10R100.png","190","test",".","image-keyboard-response","158","160260","0.0-3.0-1.77","true"
"1447","ImagesCoins/10L97.5.png","190","test",".","image-keyboard-response","160","162221","0.0-3.0-1.78","true"
"1430","ImagesCoins/10L100.png","190","test",".","image-keyboard-response","162","164156","0.0-3.0-1.79","true"
"817","ImagesCoins/10R102.5.png","190","test",".","image-keyboard-response","164","165485","0.0-3.0-1.80","true"
"893","ImagesCoins/10L105.png","188","test",",","image-keyboard-response","166","166884","0.0-3.0-1.81","true"
"809","ImagesCoins/10R107.5.png","190","test",".","image-keyboard-response","168","168204","0.0-3.0-1.82","true"
"933","ImagesCoins/10R92.5.png","188","test",",","image-keyboard-response","170","169652","0.0-3.0-1.83","true"
"697","ImagesCoins/10R105.png","190","test",".","image-keyboard-response","172","170853","0.0-3.0-1.84","true"
"858","ImagesCoins/10L110.png","188","test",",","image-keyboard-response","174","172220","0.0-3.0-1.85","true"
"1326","ImagesCoins/10L102.5.png","188","test",",","image-keyboard-response","176","174052","0.0-3.0-1.86","true"
"761","ImagesCoins/10L95.png","190","test",".","image-keyboard-response","178","175324","0.0-3.0-1.87","true"
"1124","ImagesCoins/10R90.png","188","test",",","image-keyboard-response","180","176949","0.0-3.0-1.88","true"
"865","ImagesCoins/10L92.5.png","190","test",".","image-keyboard-response","182","178316","0.0-3.0-1.89","true"
"2321","ImagesDirect/VR92.5.png","188","test",",","image-keyboard-response","184","181148","0.0-4.0-1.0","true"
"2944","ImagesSoccer/VR90.png","188","test",",","image-keyboard-response","186","184605","0.0-4.0-1.1","true"
"1243","ImagesDirect/VL110.png","188","test",",","image-keyboard-response","188","186356","0.0-4.0-1.2","true"
"3459","ImagesSoccer/VR100.png","188","test",".","image-keyboard-response","190","190324","0.0-4.0-1.3","false"
"1318","ImagesSoccer/VR92.5.png","188","test",",","image-keyboard-response","192","192149","0.0-4.0-1.4","true"
"2152","ImagesTennis/TL107.5.png","188","test",",","image-keyboard-response","194","194812","0.0-4.0-1.5","true"
"1522","ImagesTennis/TL100.png","190","test",".","image-keyboard-response","196","196836","0.0-4.0-1.6","true"
"2164","ImagesSoccer/VL102.5.png","188","test",",","image-keyboard-response","198","199516","0.0-4.0-1.7","true"
"1251","ImagesSoccer/VL90.png","190","test",".","image-keyboard-response","200","201276","0.0-4.0-1.8","true"
"2902","ImagesDirect/VR95.png","188","test",",","image-keyboard-response","202","204693","0.0-4.0-1.9","true"
"1473","ImagesDirect/VL97.5.png","188","test",".","image-keyboard-response","204","206669","0.0-4.0-1.10","false"
"2278","ImagesTennis/TR90.png","188","test",",","image-keyboard-response","206","209461","0.0-4.0-1.11","true"
"996","ImagesSoccer/VL92.5.png","190","test",".","image-keyboard-response","208","210965","0.0-4.0-1.12","true"
"1644","ImagesTennis/TR102.5.png","188","test",".","image-keyboard-response","210","213116","0.0-4.0-1.13","false"
"9843","ImagesSoccer/VR102.5.png","190","test",".","image-keyboard-response","212","223468","0.0-4.0-1.14","true"
"2253","ImagesSoccer/VL95.png","190","test",".","image-keyboard-response","214","226236","0.0-4.0-1.15","true"
"1287","ImagesDirect/VR105.png","190","test",".","image-keyboard-response","216","228029","0.0-4.0-1.16","true"
"1006","ImagesTennis/TR95.png","188","test",",","image-keyboard-response","218","229548","0.0-4.0-1.17","true"
"1517","ImagesDirect/VL92.5.png","188","test",".","image-keyboard-response","220","231572","0.0-4.0-1.18","false"
"2894","ImagesSoccer/VR95.png","188","test",",","image-keyboard-response","222","234980","0.0-4.0-1.19","true"
"1227","ImagesDirect/VR107.5.png","190","test",".","image-keyboard-response","224","236708","0.0-4.0-1.20","true"
"1074","ImagesDirect/VR90.png","188","test",",","image-keyboard-response","226","238284","0.0-4.0-1.21","true"
"799","ImagesSoccer/VR105.png","190","test",".","image-keyboard-response","228","239588","0.0-4.0-1.22","true"
"4625","ImagesDirect/VL90.png","190","test",".","image-keyboard-response","230","244724","0.0-4.0-1.23","true"
"2357","ImagesSoccer/VR97.5.png","190","test",",","image-keyboard-response","232","247588","0.0-4.0-1.24","false"
"3795","ImagesTennis/TL105.png","190","test",",","image-keyboard-response","234","251900","0.0-4.0-1.25","false"
"895","ImagesSoccer/VR107.5.png","190","test",".","image-keyboard-response","236","253301","0.0-4.0-1.26","true"
"762","ImagesTennis/TR97.5.png","188","test",",","image-keyboard-response","238","254564","0.0-4.0-1.27","true"
"817","ImagesSoccer/VL110.png","188","test",",","image-keyboard-response","240","255892","0.0-4.0-1.28","true"
"1317","ImagesTennis/TR100.png","190","test",".","image-keyboard-response","242","257716","0.0-4.0-1.29","true"
"1249","ImagesDirect/VR100.png","190","test",".","image-keyboard-response","244","259469","0.0-4.0-1.30","true"
"884","ImagesSoccer/VL97.5.png","188","test",".","image-keyboard-response","246","260860","0.0-4.0-1.31","false"
"1464","ImagesTennis/TR92.5.png","188","test",",","image-keyboard-response","248","262828","0.0-4.0-1.32","true"
"1370","ImagesDirect/VL95.png","188","test",".","image-keyboard-response","250","264700","0.0-4.0-1.33","false"
"770","ImagesTennis/TL95.png","190","test",".","image-keyboard-response","252","265980","0.0-4.0-1.34","true"
"932","ImagesSoccer/VL105.png","188","test",",","image-keyboard-response","254","267413","0.0-4.0-1.35","true"
"1863","ImagesSoccer/VL100.png","190","test",".","image-keyboard-response","256","269788","0.0-4.0-1.36","true"
"881","ImagesTennis/TR107.5.png","190","test",".","image-keyboard-response","258","271172","0.0-4.0-1.37","true"
"690","ImagesDirect/VL100.png","188","test",".","image-keyboard-response","260","272364","0.0-4.0-1.38","false"
"1019","ImagesTennis/TL90.png","190","test",".","image-keyboard-response","262","273892","0.0-4.0-1.39","true"
"730","ImagesDirect/VL102.5.png","188","test",",","image-keyboard-response","264","275124","0.0-4.0-1.40","true"
"975","ImagesTennis/TR110.png","190","test",".","image-keyboard-response","266","276604","0.0-4.0-1.41","true"
"872","ImagesDirect/VR102.5.png","190","test",".","image-keyboard-response","268","277989","0.0-4.0-1.42","true"
"647","ImagesDirect/VL107.5.png","188","test",",","image-keyboard-response","270","279148","0.0-4.0-1.43","true"
"1502","ImagesTennis/TL92.5.png","190","test",".","image-keyboard-response","272","281156","0.0-4.0-1.44","true"
"6230","ImagesTennis/TL102.5.png","190","test",",","image-keyboard-response","274","287892","0.0-4.0-1.45","false"
"2554","ImagesSoccer/VL107.5.png","188","test",",","image-keyboard-response","276","290948","0.0-4.0-1.46","true"
"1256","ImagesTennis/TL97.5.png","190","test",".","image-keyboard-response","278","292716","0.0-4.0-1.47","true"
"3918","ImagesDirect/VR97.5.png","190","test",",","image-keyboard-response","280","297140","0.0-4.0-1.48","false"
"8933","ImagesDirect/VR110.png","190","test",".","image-keyboard-response","282","306580","0.0-4.0-1.49","true"
"4584","ImagesTennis/TR105.png","190","test",".","image-keyboard-response","284","311668","0.0-4.0-1.50","true"
"1147","ImagesDirect/VL105.png","188","test",",","image-keyboard-response","286","313324","0.0-4.0-1.51","true"
"679","ImagesSoccer/VR110.png","190","test",".","image-keyboard-response","288","314517","0.0-4.0-1.52","true"
"3308","ImagesTennis/TL110.png","188","test",",","image-keyboard-response","290","318341","0.0-4.0-1.53","true"
"2177","ImagesSoccer/VR107.5.png","190","test",".","image-keyboard-response","292","321029","0.0-4.0-1.54","true"
"6188","ImagesTennis/TL102.5.png","190","test",",","image-keyboard-response","294","327732","0.0-4.0-1.55","false"
"1489","ImagesDirect/VR97.5.png","190","test",",","image-keyboard-response","296","329725","0.0-4.0-1.56","false"
"1079","ImagesDirect/VR107.5.png","190","test",".","image-keyboard-response","298","331308","0.0-4.0-1.57","true"
"2069","ImagesDirect/VR102.5.png","190","test",".","image-keyboard-response","300","333884","0.0-4.0-1.58","true"
"2505","ImagesSoccer/VL95.png","190","test",".","image-keyboard-response","302","336893","0.0-4.0-1.59","true"
"5388","ImagesTennis/TL97.5.png","190","test",".","image-keyboard-response","304","342788","0.0-4.0-1.60","true"
"2447","ImagesTennis/TR90.png","188","test",",","image-keyboard-response","306","345741","0.0-4.0-1.61","true"
"5668","ImagesDirect/VL92.5.png","190","test",".","image-keyboard-response","308","351924","0.0-4.0-1.62","true"
"5108","ImagesDirect/VL100.png","188","test",".","image-keyboard-response","310","357548","0.0-4.0-1.63","false"
"1338","ImagesDirect/VR105.png","190","test",".","image-keyboard-response","312","359396","0.0-4.0-1.64","true"
"2275","ImagesSoccer/VL100.png","190","test",".","image-keyboard-response","314","362172","0.0-4.0-1.65","true"
"1310","ImagesSoccer/VR92.5.png","188","test",",","image-keyboard-response","316","363989","0.0-4.0-1.66","true"
"2122","ImagesTennis/TL107.5.png","188","test",",","image-keyboard-response","318","366620","0.0-4.0-1.67","true"
"1958","ImagesTennis/TR92.5.png","188","test",",","image-keyboard-response","320","369084","0.0-4.0-1.68","true"
"2050","ImagesDirect/VR110.png","190","test",".","image-keyboard-response","322","371644","0.0-4.0-1.69","true"
"4418","ImagesSoccer/VR105.png","190","test",".","image-keyboard-response","324","376572","0.0-4.0-1.70","true"
"2523","ImagesDirect/VR92.5.png","188","test",",","image-keyboard-response","326","379604","0.0-4.0-1.71","true"
"3281","ImagesTennis/TR97.5.png","188","test",",","image-keyboard-response","328","383388","0.0-4.0-1.72","true"
"2151","ImagesTennis/TR110.png","190","test",".","image-keyboard-response","330","386044","0.0-4.0-1.73","true"
"2633","ImagesSoccer/VR95.png","188","test",",","image-keyboard-response","332","389180","0.0-4.0-1.74","true"
"1969","ImagesSoccer/VL105.png","188","test",",","image-keyboard-response","334","391660","0.0-4.0-1.75","true"
"6461","ImagesTennis/TR100.png","190","test",".","image-keyboard-response","336","398628","0.0-4.0-1.76","true"
"1850","ImagesDirect/VR100.png","190","test",".","image-keyboard-response","338","400981","0.0-4.0-1.77","true"
"4726","ImagesTennis/TR95.png","188","test",",","image-keyboard-response","340","406212","0.0-4.0-1.78","true"
"805","ImagesDirect/VL102.5.png","188","test",",","image-keyboard-response","342","407524","0.0-4.0-1.79","true"
"843","ImagesTennis/TR107.5.png","190","test",".","image-keyboard-response","344","408876","0.0-4.0-1.80","true"
"701","ImagesDirect/VL107.5.png","188","test",",","image-keyboard-response","346","410093","0.0-4.0-1.81","true"
"734","ImagesSoccer/VL110.png","188","test",",","image-keyboard-response","348","411332","0.0-4.0-1.82","true"
"1450","ImagesSoccer/VR97.5.png","188","test",",","image-keyboard-response","350","413284","0.0-4.0-1.83","true"
"744","ImagesDirect/VL105.png","188","test",",","image-keyboard-response","352","414532","0.0-4.0-1.84","true"
"1757","ImagesDirect/VL95.png","188","test",".","image-keyboard-response","354","416805","0.0-4.0-1.85","false"
"643","ImagesSoccer/VL107.5.png","188","test",",","image-keyboard-response","356","417964","0.0-4.0-1.86","true"
"637","ImagesSoccer/VR110.png","190","test",".","image-keyboard-response","358","419109","0.0-4.0-1.87","true"
"695","ImagesDirect/VL97.5.png","188","test",".","image-keyboard-response","360","420308","0.0-4.0-1.88","false"
"1274","ImagesSoccer/VL90.png","190","test",".","image-keyboard-response","362","422092","0.0-4.0-1.89","true"
"698","ImagesSoccer/VL102.5.png","188","test",",","image-keyboard-response","364","423301","0.0-4.0-1.90","true"
"1036","ImagesTennis/TL100.png","190","test",".","image-keyboard-response","366","424844","0.0-4.0-1.91","true"
"776","ImagesTennis/TL90.png","190","test",".","image-keyboard-response","368","426132","0.0-4.0-1.92","true"
"776","ImagesSoccer/VR100.png","188","test",".","image-keyboard-response","370","427420","0.0-4.0-1.93","false"
"834","ImagesTennis/TL110.png","188","test",",","image-keyboard-response","372","428757","0.0-4.0-1.94","true"
"796","ImagesTennis/TR105.png","190","test",".","image-keyboard-response","374","430069","0.0-4.0-1.95","true"
"724","ImagesSoccer/VR90.png","188","test",",","image-keyboard-response","376","431300","0.0-4.0-1.96","true"
"815","ImagesDirect/VL110.png","188","test",",","image-keyboard-response","378","432620","0.0-4.0-1.97","true"
"900","ImagesSoccer/VL92.5.png","190","test",".","image-keyboard-response","380","434029","0.0-4.0-1.98","true"
"1050","ImagesTennis/TL95.png","190","test",".","image-keyboard-response","382","435588","0.0-4.0-1.99","true"
"2065","ImagesSoccer/VL97.5.png","190","test",".","image-keyboard-response","384","438156","0.0-4.0-1.100","true"
"1505","ImagesDirect/VR90.png","188","test",",","image-keyboard-response","386","440164","0.0-4.0-1.101","true"
"750","ImagesTennis/TL92.5.png","190","test",".","image-keyboard-response","388","441429","0.0-4.0-1.102","true"
"910","ImagesSoccer/VR102.5.png","190","test",".","image-keyboard-response","390","442844","0.0-4.0-1.103","true"
"1024","ImagesDirect/VR95.png","190","test",",","image-keyboard-response","392","444381","0.0-4.0-1.104","false"
"1212","ImagesDirect/VL90.png","190","test",".","image-keyboard-response","394","446108","0.0-4.0-1.105","true"
"839","ImagesTennis/TR102.5.png","188","test",".","image-keyboard-response","396","447452","0.0-4.0-1.106","false"
"1132","ImagesTennis/TL105.png","188","test",",","image-keyboard-response","398","449092","0.0-4.0-1.107","true"
"688","ImagesDirect/VL110.png","188","test",",","image-keyboard-response","400","450284","0.0-4.0-1.108","true"
"663","ImagesDirect/VR107.5.png","190","test",".","image-keyboard-response","402","451460","0.0-4.0-1.109","true"
"1085","ImagesSoccer/VR97.5.png","190","test",",","image-keyboard-response","404","453061","0.0-4.0-1.110","false"
"961","ImagesTennis/TL92.5.png","190","test",".","image-keyboard-response","406","454524","0.0-4.0-1.111","true"
"764","ImagesTennis/TL95.png","190","test",".","image-keyboard-response","408","455804","0.0-4.0-1.112","true"
"734","ImagesDirect/VL107.5.png","188","test",",","image-keyboard-response","410","457044","0.0-4.0-1.113","true"
"842","ImagesTennis/TL110.png","188","test",",","image-keyboard-response","412","458397","0.0-4.0-1.114","true"
"828","ImagesDirect/VL97.5.png","188","test",".","image-keyboard-response","414","459740","0.0-4.0-1.115","false"
"739","ImagesSoccer/VL107.5.png","188","test",",","image-keyboard-response","416","460988","0.0-4.0-1.116","true"
"575","ImagesSoccer/VR110.png","190","test",".","image-keyboard-response","418","462076","0.0-4.0-1.117","true"
"586","ImagesSoccer/VL110.png","188","test",",","image-keyboard-response","420","463165","0.0-4.0-1.118","true"
"1070","ImagesTennis/TR90.png","188","test",",","image-keyboard-response","422","464749","0.0-4.0-1.119","true"
"1088","ImagesTennis/TR102.5.png","188","test",".","image-keyboard-response","424","466341","0.0-4.0-1.120","false"
"1295","ImagesDirect/VL95.png","188","test",".","image-keyboard-response","426","468148","0.0-4.0-1.121","false"
"799","ImagesSoccer/VR107.5.png","190","test",".","image-keyboard-response","428","469461","0.0-4.0-1.122","true"
"1221","ImagesTennis/TR97.5.png","188","test",",","image-keyboard-response","430","471196","0.0-4.0-1.123","true"
"631","ImagesTennis/TL90.png","190","test",".","image-keyboard-response","432","472340","0.0-4.0-1.124","true"
"909","ImagesDirect/VR105.png","190","test",".","image-keyboard-response","434","473764","0.0-4.0-1.125","true"
"2676","ImagesDirect/VR90.png","190","test",",","image-keyboard-response","436","476956","0.0-4.0-1.126","false"
"1464","ImagesDirect/VL90.png","190","test",".","image-keyboard-response","438","478932","0.0-4.0-1.127","true"
"913","ImagesTennis/TL102.5.png","188","test",",","image-keyboard-response","440","480348","0.0-4.0-1.128","true"
"875","ImagesSoccer/VL95.png","190","test",".","image-keyboard-response","442","481733","0.0-4.0-1.129","true"
"1850","ImagesSoccer/VR90.png","188","test",",","image-keyboard-response","444","484101","0.0-4.0-1.130","true"
"774","ImagesSoccer/VL105.png","188","test",",","image-keyboard-response","446","485389","0.0-4.0-1.131","true"
"786","ImagesTennis/TL97.5.png","190","test",".","image-keyboard-response","448","486684","0.0-4.0-1.132","true"
"1100","ImagesTennis/TR110.png","190","test",".","image-keyboard-response","450","488300","0.0-4.0-1.133","true"
"1483","ImagesDirect/VR95.png","190","test",",","image-keyboard-response","452","490293","0.0-4.0-1.134","false"
"1957","ImagesTennis/TL107.5.png","188","test",",","image-keyboard-response","454","492756","0.0-4.0-1.135","true"
"1249","ImagesTennis/TR92.5.png","188","test",",","image-keyboard-response","456","494508","0.0-4.0-1.136","true"
"4067","ImagesTennis/TL105.png","190","test",",","image-keyboard-response","458","499084","0.0-4.0-1.137","false"
"1659","ImagesSoccer/VL102.5.png","188","test",",","image-keyboard-response","460","501252","0.0-4.0-1.138","true"
"1624","ImagesTennis/TL100.png","190","test",".","image-keyboard-response","462","503380","0.0-4.0-1.139","true"
"696","ImagesDirect/VL102.5.png","188","test",",","image-keyboard-response","464","504581","0.0-4.0-1.140","true"
"687","ImagesTennis/TR105.png","190","test",".","image-keyboard-response","466","505772","0.0-4.0-1.141","true"
"798","ImagesDirect/VR102.5.png","190","test",".","image-keyboard-response","468","507076","0.0-4.0-1.142","true"
"1819","ImagesSoccer/VL100.png","188","test",".","image-keyboard-response","470","509404","0.0-4.0-1.143","false"
"3072","ImagesSoccer/VR92.5.png","188","test",",","image-keyboard-response","472","512988","0.0-4.0-1.144","true"
"2045","ImagesSoccer/VL97.5.png","190","test",".","image-keyboard-response","474","515540","0.0-4.0-1.145","true"
"705","ImagesSoccer/VL90.png","190","test",".","image-keyboard-response","476","516748","0.0-4.0-1.146","true"
"825","ImagesTennis/TR100.png","188","test",".","image-keyboard-response","478","518084","0.0-4.0-1.147","false"
"751","ImagesDirect/VR97.5.png","190","test",",","image-keyboard-response","480","519348","0.0-4.0-1.148","false"
"673","ImagesDirect/VL100.png","188","test",".","image-keyboard-response","482","520524","0.0-4.0-1.149","false"
"743","ImagesSoccer/VR105.png","190","test",".","image-keyboard-response","484","521780","0.0-4.0-1.150","true"
"1511","ImagesSoccer/VR95.png","188","test",",","image-keyboard-response","486","523796","0.0-4.0-1.151","true"
"1476","ImagesTennis/TR95.png","188","test",",","image-keyboard-response","488","525780","0.0-4.0-1.152","true"
"1569","ImagesDirect/VL92.5.png","190","test",".","image-keyboard-response","490","527860","0.0-4.0-1.153","true"
"1373","ImagesSoccer/VL92.5.png","190","test",".","image-keyboard-response","492","529740","0.0-4.0-1.154","true"
"836","ImagesDirect/VR110.png","190","test",".","image-keyboard-response","494","531085","0.0-4.0-1.155","true"
"1571","ImagesSoccer/VR102.5.png","190","test",".","image-keyboard-response","496","533164","0.0-4.0-1.156","true"
"849","ImagesDirect/VL105.png","188","test",",","image-keyboard-response","498","534524","0.0-4.0-1.157","true"
"1416","ImagesDirect/VR92.5.png","188","test",",","image-keyboard-response","500","536452","0.0-4.0-1.158","true"
"1302","ImagesDirect/VR100.png","190","test",".","image-keyboard-response","502","538268","0.0-4.0-1.159","true"
"1851","ImagesSoccer/VR100.png","190","test",".","image-keyboard-response","504","540628","0.0-4.0-1.160","true"
"1599","ImagesTennis/TR107.5.png","188","test",".","image-keyboard-response","506","542740","0.0-4.0-1.161","false"
"692","ImagesSoccer/VL107.5.png","188","test",",","image-keyboard-response","508","543948","0.0-4.0-1.162","true"
"826","ImagesSoccer/VL110.png","188","test",",","image-keyboard-response","510","545284","0.0-4.0-1.163","true"
"870","ImagesDirect/VL107.5.png","188","test",",","image-keyboard-response","512","546661","0.0-4.0-1.164","true"
"1102","ImagesTennis/TL110.png","188","test",",","image-keyboard-response","514","548268","0.0-4.0-1.165","true"
"1212","ImagesTennis/TR110.png","190","test",".","image-keyboard-response","516","549988","0.0-4.0-1.166","true"
"704","ImagesTennis/TL92.5.png","190","test",".","image-keyboard-response","518","551197","0.0-4.0-1.167","true"
"1540","ImagesTennis/TL97.5.png","190","test",".","image-keyboard-response","520","553252","0.0-4.0-1.168","true"
"958","ImagesSoccer/VL95.png","190","test",".","image-keyboard-response","522","554724","0.0-4.0-1.169","true"
"1774","ImagesSoccer/VL100.png","190","test",".","image-keyboard-response","524","557012","0.0-4.0-1.170","true"
"1668","ImagesSoccer/VR90.png","188","test",",","image-keyboard-response","526","559196","0.0-4.0-1.171","true"
"838","ImagesDirect/VR105.png","190","test",".","image-keyboard-response","528","560540","0.0-4.0-1.172","true"
"1859","ImagesSoccer/VR95.png","188","test",",","image-keyboard-response","530","562908","0.0-4.0-1.173","true"
"801","ImagesDirect/VL110.png","188","test",",","image-keyboard-response","532","564220","0.0-4.0-1.174","true"
"1604","ImagesSoccer/VL102.5.png","188","test",",","image-keyboard-response","534","566332","0.0-4.0-1.175","true"
"1303","ImagesTennis/TR95.png","188","test",",","image-keyboard-response","536","568148","0.0-4.0-1.176","true"
"1195","ImagesTennis/TR102.5.png","190","test",".","image-keyboard-response","538","569852","0.0-4.0-1.177","true"
"2292","ImagesSoccer/VR92.5.png","188","test",",","image-keyboard-response","540","572652","0.0-4.0-1.178","true"
"1031","ImagesDirect/VL105.png","188","test",",","image-keyboard-response","542","574188","0.0-4.0-1.179","true"
"862","ImagesDirect/VL92.5.png","190","test",".","image-keyboard-response","544","575564","0.0-4.0-1.180","true"
"1695","ImagesTennis/TL102.5.png","190","test",",","image-keyboard-response","546","577764","0.0-4.0-1.181","false"
"716","ImagesDirect/VR110.png","190","test",".","image-keyboard-response","548","578981","0.0-4.0-1.182","true"
"2901","ImagesSoccer/VL97.5.png","190","test",".","image-keyboard-response","550","582388","0.0-4.0-1.183","true"
"3462","ImagesDirect/VR95.png","190","test",",","image-keyboard-response","552","586356","0.0-4.0-1.184","false"
"2402","ImagesDirect/VL90.png","190","test",".","image-keyboard-response","554","589260","0.0-4.0-1.185","true"
"1516","ImagesSoccer/VR110.png","190","test",".","image-keyboard-response","556","591285","0.0-4.0-1.186","true"
"885","ImagesDirect/VR107.5.png","190","test",".","image-keyboard-response","558","592676","0.0-4.0-1.187","true"
"1152","ImagesSoccer/VL105.png","188","test",",","image-keyboard-response","560","594340","0.0-4.0-1.188","true"
"1361","ImagesTennis/TR90.png","188","test",",","image-keyboard-response","562","596204","0.0-4.0-1.189","true"
"876","ImagesSoccer/VR107.5.png","190","test",".","image-keyboard-response","564","597588","0.0-4.0-1.190","true"
"1228","ImagesDirect/VR102.5.png","190","test",".","image-keyboard-response","566","599332","0.0-4.0-1.191","true"
"1214","ImagesSoccer/VL92.5.png","190","test",".","image-keyboard-response","568","601052","0.0-4.0-1.192","true"
"1018","ImagesDirect/VL102.5.png","188","test",",","image-keyboard-response","570","602572","0.0-4.0-1.193","true"
"695","ImagesSoccer/VL90.png","190","test",".","image-keyboard-response","572","603772","0.0-4.0-1.194","true"
"809","ImagesDirect/VL100.png","188","test",".","image-keyboard-response","574","605093","0.0-4.0-1.195","false"
"1299","ImagesTennis/TL100.png","190","test",".","image-keyboard-response","576","606900","0.0-4.0-1.196","true"
"824","ImagesDirect/VR97.5.png","190","test",",","image-keyboard-response","578","608228","0.0-4.0-1.197","false"
"1040","ImagesSoccer/VR100.png","190","test",".","image-keyboard-response","580","609773","0.0-4.0-1.198","true"
"1801","ImagesSoccer/VR97.5.png","188","test",",","image-keyboard-response","582","612084","0.0-4.0-1.199","true"
"660","ImagesTennis/TR92.5.png","188","test",",","image-keyboard-response","584","613260","0.0-4.0-1.200","true"
"774","ImagesTennis/TR107.5.png","190","test",".","image-keyboard-response","586","614548","0.0-4.0-1.201","true"
"1230","ImagesTennis/TL105.png","188","test",",","image-keyboard-response","588","616293","0.0-4.0-1.202","true"
"1530","ImagesTennis/TL107.5.png","188","test",",","image-keyboard-response","590","618340","0.0-4.0-1.203","true"
"785","ImagesDirect/VR92.5.png","190","test",",","image-keyboard-response","592","619636","0.0-4.0-1.204","false"
"810","ImagesDirect/VR100.png","190","test",".","image-keyboard-response","594","620949","0.0-4.0-1.205","true"
"667","ImagesTennis/TL95.png","190","test",".","image-keyboard-response","596","622124","0.0-4.0-1.206","true"
"676","ImagesTennis/TR100.png","188","test",".","image-keyboard-response","598","623309","0.0-4.0-1.207","false"
"607","ImagesTennis/TR97.5.png","188","test",",","image-keyboard-response","600","624428","0.0-4.0-1.208","true"
"1268","ImagesDirect/VL97.5.png","188","test",".","image-keyboard-response","602","626213","0.0-4.0-1.209","false"
"1591","ImagesTennis/TR105.png","190","test",".","image-keyboard-response","604","628308","0.0-4.0-1.210","true"
"1457","ImagesSoccer/VR102.5.png","190","test",".","image-keyboard-response","606","630268","0.0-4.0-1.211","true"
"2080","ImagesDirect/VR90.png","188","test",",","image-keyboard-response","608","632853","0.0-4.0-1.212","true"
"2246","ImagesDirect/VL95.png","190","test",".","image-keyboard-response","610","635613","0.0-4.0-1.213","true"
"1547","ImagesSoccer/VR105.png","190","test",".","image-keyboard-response","612","637676","0.0-4.0-1.214","true"
"1114","ImagesTennis/TL90.png","190","test",".","image-keyboard-response","614","639301","0.0-4.0-1.215","true"
"1026","ImagesDirect/VR100.png","190","test",".","image-keyboard-response","616","640829","0.0-4.0-1.216","true"
"1716","ImagesSoccer/VL100.png","188","test",".","image-keyboard-response","618","643060","0.0-4.0-1.217","false"
"880","ImagesDirect/VR105.png","190","test",".","image-keyboard-response","620","644444","0.0-4.0-1.218","true"
"1779","ImagesSoccer/VL97.5.png","190","test",".","image-keyboard-response","622","646733","0.0-4.0-1.219","true"
"725","ImagesTennis/TL90.png","190","test",".","image-keyboard-response","624","647964","0.0-4.0-1.220","true"
"1387","ImagesTennis/TL107.5.png","188","test",",","image-keyboard-response","626","649860","0.0-4.0-1.221","true"
"3457","ImagesDirect/VL92.5.png","188","test",".","image-keyboard-response","628","653820","0.0-4.0-1.222","false"
"1135","ImagesTennis/TL105.png","190","test",",","image-keyboard-response","630","655468","0.0-4.0-1.223","false"
"911","ImagesTennis/TL102.5.png","190","test",",","image-keyboard-response","632","656884","0.0-4.0-1.224","false"
"873","ImagesSoccer/VR102.5.png","190","test",".","image-keyboard-response","634","658260","0.0-4.0-1.225","true"
"667","ImagesDirect/VL97.5.png","188","test",".","image-keyboard-response","636","659436","0.0-4.0-1.226","false"
"757","ImagesDirect/VR102.5.png","190","test",".","image-keyboard-response","638","660699","0.0-4.0-1.227","true"
"855","ImagesSoccer/VR100.png","190","test",".","image-keyboard-response","640","662060","0.0-4.0-1.228","true"
"706","ImagesDirect/VL110.png","188","test",",","image-keyboard-response","642","663276","0.0-4.0-1.229","true"
"1597","ImagesDirect/VL100.png","188","test",".","image-keyboard-response","644","665381","0.0-4.0-1.230","false"
"882","ImagesSoccer/VL107.5.png","188","test",",","image-keyboard-response","646","666780","0.0-4.0-1.231","true"
"1016","ImagesSoccer/VR97.5.png","190","test",",","image-keyboard-response","648","668308","0.0-4.0-1.232","false"
"1743","ImagesDirect/VR97.5.png","190","test",",","image-keyboard-response","650","670556","0.0-4.0-1.233","false"
"718","ImagesTennis/TR102.5.png","188","test",".","image-keyboard-response","652","671780","0.0-4.0-1.234","false"
"1049","ImagesSoccer/VL102.5.png","188","test",",","image-keyboard-response","654","673332","0.0-4.0-1.235","true"
"996","ImagesTennis/TL110.png","188","test",",","image-keyboard-response","656","674844","0.0-4.0-1.236","true"
"727","ImagesDirect/VR95.png","190","test",",","image-keyboard-response","658","676076","0.0-4.0-1.237","false"
"651","ImagesSoccer/VR107.5.png","190","test",".","image-keyboard-response","660","677236","0.0-4.0-1.238","true"
"656","ImagesTennis/TR90.png","188","test",",","image-keyboard-response","662","678396","0.0-4.0-1.239","true"
"1152","ImagesDirect/VR92.5.png","188","test",",","image-keyboard-response","664","680052","0.0-4.0-1.240","true"
"893","ImagesDirect/VL102.5.png","188","test",",","image-keyboard-response","666","681452","0.0-4.0-1.241","true"
"710","ImagesDirect/VL105.png","188","test",",","image-keyboard-response","668","682668","0.0-4.0-1.242","true"
"822","ImagesTennis/TR97.5.png","188","test",",","image-keyboard-response","670","684004","0.0-4.0-1.243","true"
"698","ImagesTennis/TL92.5.png","190","test",".","image-keyboard-response","672","685204","0.0-4.0-1.244","true"
"1382","ImagesSoccer/VR95.png","188","test",",","image-keyboard-response","674","687092","0.0-4.0-1.245","true"
"883","ImagesTennis/TL95.png","190","test",".","image-keyboard-response","676","688476","0.0-4.0-1.246","true"
"1490","ImagesTennis/TR92.5.png","188","test",",","image-keyboard-response","678","690476","0.0-4.0-1.247","true"
"635","ImagesSoccer/VR90.png","188","test",",","image-keyboard-response","680","691620","0.0-4.0-1.248","true"
"924","ImagesSoccer/VR92.5.png","188","test",",","image-keyboard-response","682","693052","0.0-4.0-1.249","true"
"598","ImagesTennis/TL97.5.png","190","test",".","image-keyboard-response","684","694164","0.0-4.0-1.250","true"
"940","ImagesSoccer/VL110.png","188","test",",","image-keyboard-response","686","695620","0.0-4.0-1.251","true"
"871","ImagesTennis/TR107.5.png","190","test",".","image-keyboard-response","688","697004","0.0-4.0-1.252","true"
"1315","ImagesTennis/TR110.png","190","test",".","image-keyboard-response","690","698836","0.0-4.0-1.253","true"
"1629","ImagesTennis/TR95.png","188","test",",","image-keyboard-response","692","700980","0.0-4.0-1.254","true"
"958","ImagesSoccer/VR105.png","190","test",".","image-keyboard-response","694","702444","0.0-4.0-1.255","true"
"1554","ImagesDirect/VL90.png","190","test",".","image-keyboard-response","696","704508","0.0-4.0-1.256","true"
"1247","ImagesSoccer/VL95.png","190","test",".","image-keyboard-response","698","706260","0.0-4.0-1.257","true"
"802","ImagesSoccer/VR110.png","190","test",".","image-keyboard-response","700","707564","0.0-4.0-1.258","true"
"1456","ImagesDirect/VR90.png","188","test",",","image-keyboard-response","702","709532","0.0-4.0-1.259","true"
"727","ImagesDirect/VR110.png","190","test",".","image-keyboard-response","704","710772","0.0-4.0-1.260","true"
"1178","ImagesSoccer/VL92.5.png","190","test",".","image-keyboard-response","706","712460","0.0-4.0-1.261","true"
"1410","ImagesTennis/TR105.png","190","test",".","image-keyboard-response","708","714380","0.0-4.0-1.262","true"
"1569","ImagesTennis/TR100.png","188","test",".","image-keyboard-response","710","716460","0.0-4.0-1.263","false"
"1120","ImagesSoccer/VL105.png","188","test",",","image-keyboard-response","712","718092","0.0-4.0-1.264","true"
"1844","ImagesDirect/VL95.png","190","test",".","image-keyboard-response","714","720452","0.0-4.0-1.265","true"
"1621","ImagesTennis/TL100.png","190","test",".","image-keyboard-response","716","722580","0.0-4.0-1.266","true"
"788","ImagesDirect/VL107.5.png","188","test",",","image-keyboard-response","718","723876","0.0-4.0-1.267","true"
"858","ImagesSoccer/VL90.png","190","test",".","image-keyboard-response","720","725236","0.0-4.0-1.268","true"
"720","ImagesDirect/VR107.5.png","190","test",".","image-keyboard-response","722","726460","0.0-4.0-1.269","true"
