"rt","stimulus","key_press","test_part","correct_response","trial_type","trial_index","time_elapsed","internal_node_id","correct"
"5030","ImagesCoins/10L105.png","188","test",",","image-keyboard-response","4","40572","0.0-3.0-1.0","true"
"6776","ImagesCoins/10R95.png","188","test",",","image-keyboard-response","6","47850","0.0-3.0-1.1","true"
"2040","ImagesCoins/10R102.5.png","190","test",".","image-keyboard-response","8","50393","0.0-3.0-1.2","true"
"5105","ImagesCoins/10R97.5.png","188","test",",","image-keyboard-response","10","55999","0.0-3.0-1.3","true"
"1999","ImagesCoins/10R100.png","190","test",".","image-keyboard-response","12","58500","0.0-3.0-1.4","true"
"3328","ImagesCoins/10L100.png","190","test",".","image-keyboard-response","14","62330","0.0-3.0-1.5","true"
"1279","ImagesCoins/10R107.5.png","190","test",".","image-keyboard-response","16","64111","0.0-3.0-1.6","true"
"890","ImagesCoins/10L110.png","188","test",",","image-keyboard-response","18","65503","0.0-3.0-1.7","true"
"1406","ImagesCoins/10R110.png","190","test",".","image-keyboard-response","20","67411","0.0-3.0-1.8","true"
"1916","ImagesCoins/10L102.5.png","188","test",",","image-keyboard-response","22","69829","0.0-3.0-1.9","true"
"1011","ImagesCoins/10L92.5.png","190","test",".","image-keyboard-response","24","71341","0.0-3.0-1.10","true"
"1094","ImagesCoins/10L95.png","190","test",".","image-keyboard-response","26","72937","0.0-3.0-1.11","true"
"992","ImagesCoins/10L90.png","190","test",".","image-keyboard-response","28","74430","0.0-3.0-1.12","true"
"728","ImagesCoins/10L107.5.png","188","test",",","image-keyboard-response","30","75661","0.0-3.0-1.13","true"
"1377","ImagesCoins/10R92.5.png","188","test",",","image-keyboard-response","32","77539","0.0-3.0-1.14","true"
"1200","ImagesCoins/10R90.png","188","test",",","image-keyboard-response","34","79241","0.0-3.0-1.15","true"
"979","ImagesCoins/10L97.5.png","190","test",".","image-keyboard-response","36","80723","0.0-3.0-1.16","true"
"886","ImagesCoins/10R105.png","190","test",".","image-keyboard-response","38","82110","0.0-3.0-1.17","true"
"1620","ImagesCoins/10R102.5.png","190","test",".","image-keyboard-response","40","84231","0.0-3.0-1.18","true"
"638","ImagesCoins/10L110.png","188","test",",","image-keyboard-response","42","85371","0.0-3.0-1.19","true"
"1647","ImagesCoins/10R97.5.png","188","test",",","image-keyboard-response","44","87520","0.0-3.0-1.20","true"
"1451","ImagesCoins/10L100.png","190","test",".","image-keyboard-response","46","89474","0.0-3.0-1.21","true"
"975","ImagesCoins/10L95.png","190","test",".","image-keyboard-response","48","90950","0.0-3.0-1.22","true"
"771","ImagesCoins/10R110.png","190","test",".","image-keyboard-response","50","92224","0.0-3.0-1.23","true"
"1024","ImagesCoins/10R90.png","188","test",",","image-keyboard-response","52","93750","0.0-3.0-1.24","true"
"759","ImagesCoins/10L92.5.png","190","test",".","image-keyboard-response","54","95011","0.0-3.0-1.25","true"
"1161","ImagesCoins/10L105.png","188","test",",","image-keyboard-response","56","96674","0.0-3.0-1.26","true"
"1055","ImagesCoins/10L97.5.png","190","test",".","image-keyboard-response","58","98231","0.0-3.0-1.27","true"
"754","ImagesCoins/10R105.png","190","test",".","image-keyboard-response","60","99487","0.0-3.0-1.28","true"
"1057","ImagesCoins/10R95.png","188","test",",","image-keyboard-response","62","101046","0.0-3.0-1.29","true"
"900","ImagesCoins/10R92.5.png","188","test",",","image-keyboard-response","64","102447","0.0-3.0-1.30","true"
"579","ImagesCoins/10L90.png","190","test",".","image-keyboard-response","66","103528","0.0-3.0-1.31","true"
"647","ImagesCoins/10R100.png","190","test",".","image-keyboard-response","68","104677","0.0-3.0-1.32","true"
"1055","ImagesCoins/10R107.5.png","190","test",".","image-keyboard-response","70","106237","0.0-3.0-1.33","true"
"666","ImagesCoins/10L107.5.png","188","test",",","image-keyboard-response","72","107404","0.0-3.0-1.34","true"
"978","ImagesCoins/10L102.5.png","188","test",",","image-keyboard-response","74","108885","0.0-3.0-1.35","true"
"1860","ImagesCoins/10L100.png","190","test",".","image-keyboard-response","76","111246","0.0-3.0-1.36","true"
"632","ImagesCoins/10L107.5.png","188","test",",","image-keyboard-response","78","112380","0.0-3.0-1.37","true"
"623","ImagesCoins/10R110.png","190","test",".","image-keyboard-response","80","113506","0.0-3.0-1.38","true"
"1268","ImagesCoins/10L97.5.png","190","test",".","image-keyboard-response","82","115276","0.0-3.0-1.39","true"
"600","ImagesCoins/10L110.png","188","test",",","image-keyboard-response","84","116378","0.0-3.0-1.40","true"
"2232","ImagesCoins/10L102.5.png","188","test",",","image-keyboard-response","86","119111","0.0-3.0-1.41","true"
"829","ImagesCoins/10L105.png","188","test",",","image-keyboard-response","88","120441","0.0-3.0-1.42","true"
"1252","ImagesCoins/10R92.5.png","188","test",",","image-keyboard-response","90","122195","0.0-3.0-1.43","true"
"620","ImagesCoins/10R102.5.png","190","test",".","image-keyboard-response","92","123320","0.0-3.0-1.44","true"
"1780","ImagesCoins/10L95.png","190","test",".","image-keyboard-response","94","125601","0.0-3.0-1.45","true"
"682","ImagesCoins/10R90.png","188","test",",","image-keyboard-response","96","126785","0.0-3.0-1.46","true"
"1175","ImagesCoins/10R105.png","190","test",".","image-keyboard-response","98","128462","0.0-3.0-1.47","true"
"789","ImagesCoins/10R107.5.png","190","test",".","image-keyboard-response","100","129753","0.0-3.0-1.48","true"
"969","ImagesCoins/10L92.5.png","190","test",".","image-keyboard-response","102","131224","0.0-3.0-1.49","true"
"934","ImagesCoins/10L90.png","190","test",".","image-keyboard-response","104","132660","0.0-3.0-1.50","true"
"840","ImagesCoins/10R95.png","188","test",",","image-keyboard-response","106","134002","0.0-3.0-1.51","true"
"780","ImagesCoins/10R97.5.png","188","test",",","image-keyboard-response","108","135283","0.0-3.0-1.52","true"
"1493","ImagesCoins/10R100.png","188","test",".","image-keyboard-response","110","137279","0.0-3.0-1.53","false"
"1348","ImagesCoins/10L97.5.png","190","test",".","image-keyboard-response","112","139128","0.0-3.0-1.54","true"
"653","ImagesCoins/10L110.png","188","test",",","image-keyboard-response","114","140283","0.0-3.0-1.55","true"
"730","ImagesCoins/10L102.5.png","188","test",",","image-keyboard-response","116","141515","0.0-3.0-1.56","true"
"508","ImagesCoins/10R107.5.png","190","test",".","image-keyboard-response","118","142525","0.0-3.0-1.57","true"
"709","ImagesCoins/10R105.png","190","test",".","image-keyboard-response","120","143735","0.0-3.0-1.58","true"
"602","ImagesCoins/10R95.png","188","test",",","image-keyboard-response","122","144840","0.0-3.0-1.59","true"
"619","ImagesCoins/10R110.png","190","test",".","image-keyboard-response","124","145960","0.0-3.0-1.60","true"
"762","ImagesCoins/10R102.5.png","190","test",".","image-keyboard-response","126","147224","0.0-3.0-1.61","true"
"614","ImagesCoins/10L107.5.png","188","test",",","image-keyboard-response","128","148340","0.0-3.0-1.62","true"
"1083","ImagesCoins/10L105.png","188","test",",","image-keyboard-response","130","149925","0.0-3.0-1.63","true"
"954","ImagesCoins/10R92.5.png","188","test",",","image-keyboard-response","132","151381","0.0-3.0-1.64","true"
"1315","ImagesCoins/10R90.png","188","test",",","image-keyboard-response","134","153199","0.0-3.0-1.65","true"
"687","ImagesCoins/10L92.5.png","190","test",".","image-keyboard-response","136","154387","0.0-3.0-1.66","true"
"1053","ImagesCoins/10L95.png","190","test",".","image-keyboard-response","138","155941","0.0-3.0-1.67","true"
"2254","ImagesCoins/10R100.png","190","test",".","image-keyboard-response","140","158696","0.0-3.0-1.68","true"
"834","ImagesCoins/10L90.png","190","test",".","image-keyboard-response","142","160032","0.0-3.0-1.69","true"
"1630","ImagesCoins/10L100.png","188","test",".","image-keyboard-response","144","162163","0.0-3.0-1.70","false"
"1161","ImagesCoins/10R97.5.png","188","test",",","image-keyboard-response","146","163826","0.0-3.0-1.71","true"
"750","ImagesCoins/10L110.png","188","test",",","image-keyboard-response","148","165078","0.0-3.0-1.72","true"
"1015","ImagesCoins/10R90.png","188","test",",","image-keyboard-response","150","166594","0.0-3.0-1.73","true"
"1766","ImagesCoins/10L102.5.png","188","test",",","image-keyboard-response","152","168862","0.0-3.0-1.74","true"
"755","ImagesCoins/10R110.png","190","test",".","image-keyboard-response","154","170119","0.0-3.0-1.75","true"
"1936","ImagesCoins/10L97.5.png","190","test",".","image-keyboard-response","156","172557","0.0-3.0-1.76","true"
"644","ImagesCoins/10L107.5.png","188","test",",","image-keyboard-response","158","173703","0.0-3.0-1.77","true"
"1498","ImagesCoins/10R100.png","190","test",".","image-keyboard-response","160","175703","0.0-3.0-1.78","true"
"723","ImagesCoins/10R92.5.png","188","test",",","image-keyboard-response","162","176928","0.0-3.0-1.79","true"
"618","ImagesCoins/10R102.5.png","190","test",".","image-keyboard-response","164","178047","0.0-3.0-1.80","true"
"608","ImagesCoins/10L100.png","188","test",".","image-keyboard-response","166","179158","0.0-3.0-1.81","false"
"1014","ImagesCoins/10R95.png","188","test",",","image-keyboard-response","168","180676","0.0-3.0-1.82","true"
"748","ImagesCoins/10R105.png","190","test",".","image-keyboard-response","170","181926","0.0-3.0-1.83","true"
"1703","ImagesCoins/10R97.5.png","188","test",",","image-keyboard-response","172","184130","0.0-3.0-1.84","true"
"881","ImagesCoins/10R107.5.png","190","test",".","image-keyboard-response","174","185513","0.0-3.0-1.85","true"
"802","ImagesCoins/10L95.png","188","test",".","image-keyboard-response","176","186817","0.0-3.0-1.86","false"
"697","ImagesCoins/10L105.png","188","test",",","image-keyboard-response","178","188017","0.0-3.0-1.87","true"
"613","ImagesCoins/10L90.png","190","test",".","image-keyboard-response","180","189132","0.0-3.0-1.88","true"
"1705","ImagesCoins/10L92.5.png","190","test",".","image-keyboard-response","182","191340","0.0-3.0-1.89","true"
"1327","ImagesSoccer/VL107.5.png","188","test",",","image-keyboard-response","184","193168","0.0-4.0-1.0","true"
"3589","ImagesSoccer/VL95.png","190","test",".","image-keyboard-response","186","197258","0.0-4.0-1.1","true"
"2110","ImagesSoccer/VR97.5.png","190","test",",","image-keyboard-response","188","199870","0.0-4.0-1.2","false"
"748","ImagesSoccer/VR107.5.png","190","test",".","image-keyboard-response","190","201120","0.0-4.0-1.3","true"
"980","ImagesTennis/TR92.5.png","188","test",",","image-keyboard-response","192","202601","0.0-4.0-1.4","true"
"1119","ImagesDirect/VL100.png","188","test",".","image-keyboard-response","194","204221","0.0-4.0-1.5","false"
"1318","ImagesDirect/VR90.png","188","test",",","image-keyboard-response","196","206040","0.0-4.0-1.6","true"
"726","ImagesDirect/VR107.5.png","190","test",".","image-keyboard-response","198","207267","0.0-4.0-1.7","true"
"1403","ImagesSoccer/VR105.png","190","test",".","image-keyboard-response","200","209171","0.0-4.0-1.8","true"
"2302","ImagesSoccer/VL92.5.png","190","test",".","image-keyboard-response","202","211975","0.0-4.0-1.9","true"
"1013","ImagesSoccer/VR92.5.png","188","test",",","image-keyboard-response","204","213490","0.0-4.0-1.10","true"
"1878","ImagesTennis/TR100.png","188","test",".","image-keyboard-response","206","215871","0.0-4.0-1.11","false"
"948","ImagesDirect/VR95.png","190","test",",","image-keyboard-response","208","217320","0.0-4.0-1.12","false"
"1307","ImagesTennis/TL95.png","190","test",".","image-keyboard-response","210","219130","0.0-4.0-1.13","true"
"763","ImagesTennis/TL105.png","188","test",",","image-keyboard-response","212","220399","0.0-4.0-1.14","true"
"2180","ImagesSoccer/VR100.png","190","test",".","image-keyboard-response","214","223081","0.0-4.0-1.15","true"
"678","ImagesSoccer/VL97.5.png","188","test",".","image-keyboard-response","216","224261","0.0-4.0-1.16","false"
"1001","ImagesTennis/TR107.5.png","190","test",".","image-keyboard-response","218","225763","0.0-4.0-1.17","true"
"1116","ImagesTennis/TL92.5.png","190","test",".","image-keyboard-response","220","227380","0.0-4.0-1.18","true"
"713","ImagesSoccer/VL105.png","188","test",",","image-keyboard-response","222","228595","0.0-4.0-1.19","true"
"2191","ImagesDirect/VL90.png","190","test",".","image-keyboard-response","224","231287","0.0-4.0-1.20","true"
"663","ImagesDirect/VL110.png","188","test",",","image-keyboard-response","226","232451","0.0-4.0-1.21","true"
"872","ImagesSoccer/VL102.5.png","188","test",",","image-keyboard-response","228","233825","0.0-4.0-1.22","true"
"1735","ImagesDirect/VL92.5.png","190","test",".","image-keyboard-response","230","236061","0.0-4.0-1.23","true"
"3757","ImagesTennis/TL102.5.png","188","test",",","image-keyboard-response","232","240320","0.0-4.0-1.24","true"
"933","ImagesTennis/TL107.5.png","188","test",",","image-keyboard-response","234","241756","0.0-4.0-1.25","true"
"747","ImagesSoccer/VL110.png","188","test",",","image-keyboard-response","236","243005","0.0-4.0-1.26","true"
"4714","ImagesDirect/VL97.5.png","188","test",".","image-keyboard-response","238","248222","0.0-4.0-1.27","false"
"1081","ImagesDirect/VR102.5.png","190","test",".","image-keyboard-response","240","249804","0.0-4.0-1.28","true"
"740","ImagesDirect/VL102.5.png","188","test",",","image-keyboard-response","242","251047","0.0-4.0-1.29","true"
"1807","ImagesTennis/TR97.5.png","190","test",",","image-keyboard-response","244","253356","0.0-4.0-1.30","false"
"1012","ImagesDirect/VR110.png","190","test",".","image-keyboard-response","246","254869","0.0-4.0-1.31","true"
"941","ImagesTennis/TR90.png","188","test",",","image-keyboard-response","248","256312","0.0-4.0-1.32","true"
"1813","ImagesTennis/TL100.png","190","test",".","image-keyboard-response","250","258627","0.0-4.0-1.33","true"
"1443","ImagesTennis/TL97.5.png","190","test",".","image-keyboard-response","252","260572","0.0-4.0-1.34","true"
"655","ImagesDirect/VL105.png","188","test",",","image-keyboard-response","254","261730","0.0-4.0-1.35","true"
"881","ImagesTennis/TR95.png","188","test",",","image-keyboard-response","256","263112","0.0-4.0-1.36","true"
"2508","ImagesSoccer/VR95.png","188","test",",","image-keyboard-response","258","266122","0.0-4.0-1.37","true"
"2027","ImagesDirect/VR92.5.png","190","test",",","image-keyboard-response","260","268651","0.0-4.0-1.38","false"
"928","ImagesTennis/TR110.png","190","test",".","image-keyboard-response","262","270082","0.0-4.0-1.39","true"
"920","ImagesTennis/TR102.5.png","188","test",".","image-keyboard-response","264","271504","0.0-4.0-1.40","false"
"681","ImagesDirect/VL107.5.png","188","test",",","image-keyboard-response","266","272687","0.0-4.0-1.41","true"
"838","ImagesSoccer/VR102.5.png","190","test",".","image-keyboard-response","268","274027","0.0-4.0-1.42","true"
"773","ImagesTennis/TL110.png","188","test",",","image-keyboard-response","270","275301","0.0-4.0-1.43","true"
"2579","ImagesDirect/VL95.png","188","test",".","image-keyboard-response","272","278382","0.0-4.0-1.44","false"
"1045","ImagesSoccer/VR90.png","188","test",",","image-keyboard-response","274","279928","0.0-4.0-1.45","true"
"2627","ImagesSoccer/VL100.png","190","test",".","image-keyboard-response","276","283057","0.0-4.0-1.46","true"
"839","ImagesDirect/VR105.png","190","test",".","image-keyboard-response","278","284399","0.0-4.0-1.47","true"
"983","ImagesSoccer/VL90.png","190","test",".","image-keyboard-response","280","285883","0.0-4.0-1.48","true"
"844","ImagesTennis/TL90.png","190","test",".","image-keyboard-response","282","287229","0.0-4.0-1.49","true"
"1026","ImagesDirect/VR97.5.png","190","test",",","image-keyboard-response","284","288757","0.0-4.0-1.50","false"
"761","ImagesSoccer/VR110.png","190","test",".","image-keyboard-response","286","290020","0.0-4.0-1.51","true"
"1882","ImagesDirect/VR100.png","190","test",".","image-keyboard-response","288","292405","0.0-4.0-1.52","true"
"1028","ImagesTennis/TR105.png","190","test",".","image-keyboard-response","290","293935","0.0-4.0-1.53","true"
"3156","ImagesTennis/TR105.png","188","test",".","image-keyboard-response","292","297593","0.0-4.0-1.54","false"
"534","ImagesDirect/VL110.png","188","test",",","image-keyboard-response","294","298629","0.0-4.0-1.55","true"
"1127","ImagesDirect/VR90.png","188","test",",","image-keyboard-response","296","300257","0.0-4.0-1.56","true"
"637","ImagesDirect/VR110.png","190","test",".","image-keyboard-response","298","301395","0.0-4.0-1.57","true"
"2553","ImagesSoccer/VR95.png","190","test",",","image-keyboard-response","300","304449","0.0-4.0-1.58","false"
"715","ImagesSoccer/VL97.5.png","188","test",".","image-keyboard-response","302","305665","0.0-4.0-1.59","false"
"1002","ImagesDirect/VR105.png","190","test",".","image-keyboard-response","304","307169","0.0-4.0-1.60","true"
"726","ImagesDirect/VL97.5.png","188","test",".","image-keyboard-response","306","308398","0.0-4.0-1.61","false"
"621","ImagesSoccer/VL110.png","188","test",",","image-keyboard-response","308","309521","0.0-4.0-1.62","true"
"876","ImagesDirect/VR92.5.png","188","test",",","image-keyboard-response","310","310898","0.0-4.0-1.63","true"
"1936","ImagesTennis/TR97.5.png","188","test",",","image-keyboard-response","312","313337","0.0-4.0-1.64","true"
"924","ImagesTennis/TR102.5.png","190","test",".","image-keyboard-response","314","314762","0.0-4.0-1.65","true"
"652","ImagesDirect/VR102.5.png","190","test",".","image-keyboard-response","316","315916","0.0-4.0-1.66","true"
"642","ImagesDirect/VL102.5.png","188","test",",","image-keyboard-response","318","317059","0.0-4.0-1.67","true"
"537","ImagesSoccer/VR107.5.png","190","test",".","image-keyboard-response","320","318098","0.0-4.0-1.68","true"
"527","ImagesSoccer/VL105.png","188","test",",","image-keyboard-response","322","319126","0.0-4.0-1.69","true"
"1648","ImagesTennis/TL97.5.png","190","test",".","image-keyboard-response","324","321275","0.0-4.0-1.70","true"
"738","ImagesDirect/VR107.5.png","190","test",".","image-keyboard-response","326","322516","0.0-4.0-1.71","true"
"760","ImagesTennis/TR95.png","188","test",",","image-keyboard-response","328","323778","0.0-4.0-1.72","true"
"992","ImagesDirect/VR100.png","190","test",".","image-keyboard-response","330","325272","0.0-4.0-1.73","true"
"3155","ImagesDirect/VL90.png","190","test",".","image-keyboard-response","332","328928","0.0-4.0-1.74","true"
"754","ImagesTennis/TL92.5.png","190","test",".","image-keyboard-response","334","330184","0.0-4.0-1.75","true"
"2180","ImagesTennis/TR107.5.png","190","test",".","image-keyboard-response","336","332866","0.0-4.0-1.76","true"
"4131","ImagesTennis/TL102.5.png","190","test",",","image-keyboard-response","338","337499","0.0-4.0-1.77","false"
"1985","ImagesSoccer/VR90.png","188","test",",","image-keyboard-response","340","339986","0.0-4.0-1.78","true"
"526","ImagesDirect/VL107.5.png","188","test",",","image-keyboard-response","342","341014","0.0-4.0-1.79","true"
"1935","ImagesTennis/TL100.png","190","test",".","image-keyboard-response","344","343452","0.0-4.0-1.80","true"
"2083","ImagesDirect/VL95.png","190","test",".","image-keyboard-response","346","346037","0.0-4.0-1.81","true"
"602","ImagesTennis/TL107.5.png","188","test",",","image-keyboard-response","348","347140","0.0-4.0-1.82","true"
"525","ImagesDirect/VL105.png","188","test",",","image-keyboard-response","350","348167","0.0-4.0-1.83","true"
"718","ImagesDirect/VR97.5.png","190","test",",","image-keyboard-response","352","349386","0.0-4.0-1.84","false"
"947","ImagesSoccer/VR97.5.png","190","test",",","image-keyboard-response","354","350836","0.0-4.0-1.85","false"
"1618","ImagesSoccer/VL95.png","190","test",".","image-keyboard-response","356","352955","0.0-4.0-1.86","true"
"781","ImagesSoccer/VR92.5.png","188","test",",","image-keyboard-response","358","354238","0.0-4.0-1.87","true"
"1079","ImagesDirect/VR95.png","188","test",",","image-keyboard-response","360","355818","0.0-4.0-1.88","true"
"892","ImagesDirect/VL92.5.png","190","test",".","image-keyboard-response","362","357212","0.0-4.0-1.89","true"
"3040","ImagesSoccer/VL92.5.png","190","test",".","image-keyboard-response","364","360754","0.0-4.0-1.90","true"
"764","ImagesSoccer/VR105.png","190","test",".","image-keyboard-response","366","362020","0.0-4.0-1.91","true"
"629","ImagesDirect/VL100.png","188","test",".","image-keyboard-response","368","363151","0.0-4.0-1.92","false"
"869","ImagesSoccer/VL90.png","190","test",".","image-keyboard-response","370","364522","0.0-4.0-1.93","true"
"2016","ImagesSoccer/VR100.png","190","test",".","image-keyboard-response","372","367040","0.0-4.0-1.94","true"
"767","ImagesSoccer/VR110.png","190","test",".","image-keyboard-response","374","368310","0.0-4.0-1.95","true"
"620","ImagesSoccer/VL102.5.png","188","test",",","image-keyboard-response","376","369431","0.0-4.0-1.96","true"
"846","ImagesTennis/TR92.5.png","188","test",",","image-keyboard-response","378","370779","0.0-4.0-1.97","true"
"890","ImagesTennis/TR90.png","188","test",",","image-keyboard-response","380","372172","0.0-4.0-1.98","true"
"570","ImagesSoccer/VL107.5.png","188","test",",","image-keyboard-response","382","373244","0.0-4.0-1.99","true"
"650","ImagesTennis/TL105.png","188","test",",","image-keyboard-response","384","374395","0.0-4.0-1.100","true"
"654","ImagesSoccer/VR102.5.png","190","test",".","image-keyboard-response","386","375551","0.0-4.0-1.101","true"
"714","ImagesTennis/TL90.png","190","test",".","image-keyboard-response","388","376767","0.0-4.0-1.102","true"
"980","ImagesTennis/TR100.png","190","test",".","image-keyboard-response","390","378248","0.0-4.0-1.103","true"
"852","ImagesTennis/TL95.png","190","test",".","image-keyboard-response","392","379602","0.0-4.0-1.104","true"
"659","ImagesTennis/TR110.png","190","test",".","image-keyboard-response","394","380763","0.0-4.0-1.105","true"
"1990","ImagesSoccer/VL100.png","188","test",".","image-keyboard-response","396","383255","0.0-4.0-1.106","false"
"667","ImagesTennis/TL110.png","188","test",",","image-keyboard-response","398","384423","0.0-4.0-1.107","true"
"2204","ImagesDirect/VR92.5.png","188","test",",","image-keyboard-response","400","387128","0.0-4.0-1.108","true"
"569","ImagesSoccer/VR105.png","190","test",".","image-keyboard-response","402","388199","0.0-4.0-1.109","true"
"806","ImagesDirect/VR95.png","190","test",",","image-keyboard-response","404","389507","0.0-4.0-1.110","false"
"663","ImagesSoccer/VR92.5.png","188","test",",","image-keyboard-response","406","390672","0.0-4.0-1.111","true"
"526","ImagesDirect/VL107.5.png","188","test",",","image-keyboard-response","408","391700","0.0-4.0-1.112","true"
"513","ImagesDirect/VR107.5.png","190","test",".","image-keyboard-response","410","392715","0.0-4.0-1.113","true"
"641","ImagesSoccer/VL105.png","188","test",",","image-keyboard-response","412","393857","0.0-4.0-1.114","true"
"591","ImagesSoccer/VR107.5.png","190","test",".","image-keyboard-response","414","394950","0.0-4.0-1.115","true"
"1032","ImagesTennis/TL92.5.png","190","test",".","image-keyboard-response","416","396483","0.0-4.0-1.116","true"
"579","ImagesDirect/VL110.png","188","test",",","image-keyboard-response","418","397564","0.0-4.0-1.117","true"
"621","ImagesDirect/VR97.5.png","190","test",",","image-keyboard-response","420","398687","0.0-4.0-1.118","false"
"2628","ImagesTennis/TR102.5.png","188","test",".","image-keyboard-response","422","401817","0.0-4.0-1.119","false"
"1890","ImagesTennis/TR100.png","188","test",".","image-keyboard-response","424","404209","0.0-4.0-1.120","false"
"561","ImagesTennis/TR95.png","188","test",",","image-keyboard-response","426","405271","0.0-4.0-1.121","true"
"1290","ImagesSoccer/VL92.5.png","190","test",".","image-keyboard-response","428","407063","0.0-4.0-1.122","true"
"535","ImagesDirect/VL100.png","188","test",".","image-keyboard-response","430","408099","0.0-4.0-1.123","false"
"580","ImagesDirect/VR110.png","190","test",".","image-keyboard-response","432","409181","0.0-4.0-1.124","true"
"614","ImagesTennis/TL90.png","190","test",".","image-keyboard-response","434","410296","0.0-4.0-1.125","true"
"645","ImagesSoccer/VL110.png","188","test",",","image-keyboard-response","436","411443","0.0-4.0-1.126","true"
"724","ImagesSoccer/VR100.png","190","test",".","image-keyboard-response","438","412669","0.0-4.0-1.127","true"
"1041","ImagesDirect/VR102.5.png","190","test",".","image-keyboard-response","440","414213","0.0-4.0-1.128","true"
"524","ImagesSoccer/VL102.5.png","188","test",",","image-keyboard-response","442","415238","0.0-4.0-1.129","true"
"752","ImagesTennis/TL100.png","190","test",".","image-keyboard-response","444","416492","0.0-4.0-1.130","true"
"880","ImagesDirect/VL90.png","190","test",".","image-keyboard-response","446","417875","0.0-4.0-1.131","true"
"2498","ImagesSoccer/VL95.png","190","test",".","image-keyboard-response","448","420874","0.0-4.0-1.132","true"
"598","ImagesTennis/TL110.png","188","test",",","image-keyboard-response","450","421975","0.0-4.0-1.133","true"
"834","ImagesDirect/VL105.png","188","test",",","image-keyboard-response","452","423311","0.0-4.0-1.134","true"
"918","ImagesTennis/TL95.png","190","test",".","image-keyboard-response","454","424731","0.0-4.0-1.135","true"
"663","ImagesTennis/TR92.5.png","188","test",",","image-keyboard-response","456","425896","0.0-4.0-1.136","true"
"733","ImagesSoccer/VL100.png","188","test",".","image-keyboard-response","458","427133","0.0-4.0-1.137","false"
"1067","ImagesTennis/TL105.png","190","test",",","image-keyboard-response","460","428702","0.0-4.0-1.138","false"
"606","ImagesTennis/TR105.png","190","test",".","image-keyboard-response","462","429810","0.0-4.0-1.139","true"
"725","ImagesDirect/VL95.png","188","test",".","image-keyboard-response","464","431036","0.0-4.0-1.140","false"
"725","ImagesSoccer/VR102.5.png","190","test",".","image-keyboard-response","466","432263","0.0-4.0-1.141","true"
"711","ImagesTennis/TR110.png","190","test",".","image-keyboard-response","468","433476","0.0-4.0-1.142","true"
"2963","ImagesTennis/TR107.5.png","190","test",".","image-keyboard-response","470","436942","0.0-4.0-1.143","true"
"1292","ImagesTennis/TL97.5.png","190","test",".","image-keyboard-response","472","438735","0.0-4.0-1.144","true"
"568","ImagesSoccer/VL107.5.png","188","test",",","image-keyboard-response","474","439807","0.0-4.0-1.145","true"
"599","ImagesDirect/VR105.png","190","test",".","image-keyboard-response","476","440907","0.0-4.0-1.146","true"
"2812","ImagesDirect/VR100.png","188","test",".","image-keyboard-response","478","444221","0.0-4.0-1.147","false"
"579","ImagesTennis/TL107.5.png","188","test",",","image-keyboard-response","480","445302","0.0-4.0-1.148","true"
"1031","ImagesTennis/TR97.5.png","188","test",",","image-keyboard-response","482","446835","0.0-4.0-1.149","true"
"837","ImagesDirect/VR90.png","188","test",",","image-keyboard-response","484","448175","0.0-4.0-1.150","true"
"817","ImagesSoccer/VR110.png","190","test",".","image-keyboard-response","486","449494","0.0-4.0-1.151","true"
"4329","ImagesSoccer/VL97.5.png","188","test",".","image-keyboard-response","488","454324","0.0-4.0-1.152","false"
"1834","ImagesDirect/VL92.5.png","190","test",".","image-keyboard-response","490","456661","0.0-4.0-1.153","true"
"573","ImagesTennis/TL102.5.png","188","test",",","image-keyboard-response","492","457737","0.0-4.0-1.154","true"
"569","ImagesSoccer/VL90.png","190","test",".","image-keyboard-response","494","458808","0.0-4.0-1.155","true"
"583","ImagesDirect/VL102.5.png","188","test",",","image-keyboard-response","496","459893","0.0-4.0-1.156","true"
"784","ImagesSoccer/VR90.png","188","test",",","image-keyboard-response","498","461178","0.0-4.0-1.157","true"
"664","ImagesTennis/TR90.png","188","test",",","image-keyboard-response","500","462344","0.0-4.0-1.158","true"
"1479","ImagesSoccer/VR95.png","190","test",",","image-keyboard-response","502","464324","0.0-4.0-1.159","false"
"583","ImagesDirect/VL97.5.png","190","test",".","image-keyboard-response","504","465409","0.0-4.0-1.160","true"
"1538","ImagesSoccer/VR97.5.png","190","test",",","image-keyboard-response","506","467448","0.0-4.0-1.161","false"
"629","ImagesDirect/VL107.5.png","188","test",",","image-keyboard-response","508","468580","0.0-4.0-1.162","true"
"1707","ImagesTennis/TL107.5.png","190","test",",","image-keyboard-response","510","470788","0.0-4.0-1.163","false"
"871","ImagesDirect/VL92.5.png","190","test",".","image-keyboard-response","512","472161","0.0-4.0-1.164","true"
"588","ImagesSoccer/VR110.png","190","test",".","image-keyboard-response","514","473251","0.0-4.0-1.165","true"
"642","ImagesTennis/TL90.png","190","test",".","image-keyboard-response","516","474395","0.0-4.0-1.166","true"
"686","ImagesDirect/VR102.5.png","190","test",".","image-keyboard-response","518","475582","0.0-4.0-1.167","true"
"544","ImagesDirect/VL105.png","188","test",",","image-keyboard-response","520","476628","0.0-4.0-1.168","true"
"703","ImagesSoccer/VR92.5.png","188","test",",","image-keyboard-response","522","477833","0.0-4.0-1.169","true"
"637","ImagesSoccer/VL107.5.png","188","test",",","image-keyboard-response","524","478971","0.0-4.0-1.170","true"
"525","ImagesDirect/VR107.5.png","190","test",".","image-keyboard-response","526","479998","0.0-4.0-1.171","true"
"905","ImagesSoccer/VL92.5.png","190","test",".","image-keyboard-response","528","481404","0.0-4.0-1.172","true"
"611","ImagesTennis/TL105.png","188","test",",","image-keyboard-response","530","482516","0.0-4.0-1.173","true"
"961","ImagesSoccer/VR97.5.png","190","test",",","image-keyboard-response","532","483980","0.0-4.0-1.174","false"
"763","ImagesSoccer/VL100.png","188","test",".","image-keyboard-response","534","485244","0.0-4.0-1.175","false"
"843","ImagesDirect/VL110.png","188","test",",","image-keyboard-response","536","486590","0.0-4.0-1.176","true"
"1349","ImagesTennis/TR90.png","188","test",",","image-keyboard-response","538","488441","0.0-4.0-1.177","true"
"966","ImagesSoccer/VL90.png","190","test",".","image-keyboard-response","540","489908","0.0-4.0-1.178","true"
"1102","ImagesDirect/VR90.png","188","test",",","image-keyboard-response","542","491513","0.0-4.0-1.179","true"
"709","ImagesDirect/VL90.png","190","test",".","image-keyboard-response","544","492726","0.0-4.0-1.180","true"
"787","ImagesDirect/VR95.png","188","test",",","image-keyboard-response","546","494015","0.0-4.0-1.181","true"
"1924","ImagesTennis/TL97.5.png","190","test",".","image-keyboard-response","548","496441","0.0-4.0-1.182","true"
"839","ImagesDirect/VL102.5.png","188","test",",","image-keyboard-response","550","497782","0.0-4.0-1.183","true"
"956","ImagesSoccer/VR102.5.png","190","test",".","image-keyboard-response","552","499240","0.0-4.0-1.184","true"
"735","ImagesDirect/VR110.png","190","test",".","image-keyboard-response","554","500477","0.0-4.0-1.185","true"
"1709","ImagesTennis/TR105.png","190","test",".","image-keyboard-response","556","502687","0.0-4.0-1.186","true"
"1394","ImagesSoccer/VR95.png","190","test",",","image-keyboard-response","558","504584","0.0-4.0-1.187","false"
"1550","ImagesDirect/VR100.png","190","test",".","image-keyboard-response","560","506636","0.0-4.0-1.188","true"
"603","ImagesDirect/VL100.png","188","test",".","image-keyboard-response","562","507742","0.0-4.0-1.189","false"
"709","ImagesTennis/TR110.png","190","test",".","image-keyboard-response","564","508952","0.0-4.0-1.190","true"
"520","ImagesSoccer/VL102.5.png","188","test",",","image-keyboard-response","566","509974","0.0-4.0-1.191","true"
"1738","ImagesTennis/TL102.5.png","190","test",",","image-keyboard-response","568","512214","0.0-4.0-1.192","false"
"723","ImagesDirect/VR92.5.png","188","test",",","image-keyboard-response","570","513439","0.0-4.0-1.193","true"
"720","ImagesSoccer/VR107.5.png","190","test",".","image-keyboard-response","572","514662","0.0-4.0-1.194","true"
"766","ImagesDirect/VL97.5.png","188","test",".","image-keyboard-response","574","515930","0.0-4.0-1.195","false"
"1226","ImagesTennis/TL100.png","188","test",".","image-keyboard-response","576","517659","0.0-4.0-1.196","false"
"788","ImagesTennis/TR107.5.png","190","test",".","image-keyboard-response","578","518948","0.0-4.0-1.197","true"
"534","ImagesSoccer/VL105.png","188","test",",","image-keyboard-response","580","519984","0.0-4.0-1.198","true"
"1235","ImagesTennis/TR102.5.png","190","test",".","image-keyboard-response","582","521721","0.0-4.0-1.199","true"
"1106","ImagesSoccer/VR90.png","188","test",",","image-keyboard-response","584","523329","0.0-4.0-1.200","true"
"780","ImagesTennis/TR92.5.png","188","test",",","image-keyboard-response","586","524611","0.0-4.0-1.201","true"
"1153","ImagesDirect/VR97.5.png","190","test",",","image-keyboard-response","588","526265","0.0-4.0-1.202","false"
"1031","ImagesSoccer/VL97.5.png","188","test",".","image-keyboard-response","590","527798","0.0-4.0-1.203","false"
"699","ImagesTennis/TL110.png","188","test",",","image-keyboard-response","592","528999","0.0-4.0-1.204","true"
"1748","ImagesTennis/TR100.png","190","test",".","image-keyboard-response","594","531249","0.0-4.0-1.205","true"
"852","ImagesTennis/TL95.png","190","test",".","image-keyboard-response","596","532604","0.0-4.0-1.206","true"
"992","ImagesSoccer/VR100.png","190","test",".","image-keyboard-response","598","534097","0.0-4.0-1.207","true"
"514","ImagesSoccer/VL110.png","188","test",",","image-keyboard-response","600","535113","0.0-4.0-1.208","true"
"691","ImagesSoccer/VR105.png","190","test",".","image-keyboard-response","602","536306","0.0-4.0-1.209","true"
"666","ImagesDirect/VR105.png","190","test",".","image-keyboard-response","604","537474","0.0-4.0-1.210","true"
"1055","ImagesTennis/TR95.png","188","test",",","image-keyboard-response","606","539032","0.0-4.0-1.211","true"
"1467","ImagesTennis/TR97.5.png","188","test",",","image-keyboard-response","608","541000","0.0-4.0-1.212","true"
"700","ImagesTennis/TL92.5.png","190","test",".","image-keyboard-response","610","542203","0.0-4.0-1.213","true"
"921","ImagesSoccer/VL95.png","190","test",".","image-keyboard-response","612","543625","0.0-4.0-1.214","true"
"1113","ImagesDirect/VL95.png","190","test",".","image-keyboard-response","614","545241","0.0-4.0-1.215","true"
"737","ImagesDirect/VR90.png","188","test",",","image-keyboard-response","616","546482","0.0-4.0-1.216","true"
"591","ImagesDirect/VR107.5.png","190","test",".","image-keyboard-response","618","547575","0.0-4.0-1.217","true"
"1014","ImagesDirect/VR100.png","190","test",".","image-keyboard-response","620","549091","0.0-4.0-1.218","true"
"811","ImagesTennis/TL95.png","190","test",".","image-keyboard-response","622","550403","0.0-4.0-1.219","true"
"921","ImagesTennis/TR105.png","190","test",".","image-keyboard-response","624","551825","0.0-4.0-1.220","true"
"693","ImagesSoccer/VR107.5.png","190","test",".","image-keyboard-response","626","553021","0.0-4.0-1.221","true"
"1608","ImagesDirect/VR102.5.png","190","test",".","image-keyboard-response","628","555132","0.0-4.0-1.222","true"
"778","ImagesDirect/VL90.png","190","test",".","image-keyboard-response","630","556412","0.0-4.0-1.223","true"
"695","ImagesTennis/TL110.png","188","test",",","image-keyboard-response","632","557609","0.0-4.0-1.224","true"
"884","ImagesSoccer/VL110.png","188","test",",","image-keyboard-response","634","558996","0.0-4.0-1.225","true"
"930","ImagesSoccer/VR95.png","190","test",",","image-keyboard-response","636","560427","0.0-4.0-1.226","false"
"1089","ImagesSoccer/VR97.5.png","190","test",",","image-keyboard-response","638","562017","0.0-4.0-1.227","false"
"711","ImagesTennis/TR90.png","188","test",",","image-keyboard-response","640","563231","0.0-4.0-1.228","true"
"583","ImagesTennis/TL90.png","190","test",".","image-keyboard-response","642","564315","0.0-4.0-1.229","true"
"684","ImagesTennis/TL100.png","190","test",".","image-keyboard-response","644","565501","0.0-4.0-1.230","true"
"454","ImagesTennis/TL92.5.png","190","test",".","image-keyboard-response","646","566458","0.0-4.0-1.231","true"
"783","ImagesDirect/VL102.5.png","188","test",",","image-keyboard-response","648","567744","0.0-4.0-1.232","true"
"837","ImagesTennis/TL97.5.png","190","test",".","image-keyboard-response","650","569083","0.0-4.0-1.233","true"
"808","ImagesSoccer/VL105.png","188","test",",","image-keyboard-response","652","570392","0.0-4.0-1.234","true"
"4388","ImagesTennis/TL102.5.png","190","test",",","image-keyboard-response","654","575283","0.0-4.0-1.235","false"
"786","ImagesSoccer/VR102.5.png","190","test",".","image-keyboard-response","656","576572","0.0-4.0-1.236","true"
"1099","ImagesTennis/TR95.png","188","test",",","image-keyboard-response","658","578173","0.0-4.0-1.237","true"
"667","ImagesSoccer/VR90.png","188","test",",","image-keyboard-response","660","579342","0.0-4.0-1.238","true"
"679","ImagesDirect/VR97.5.png","190","test",",","image-keyboard-response","662","580522","0.0-4.0-1.239","false"
"1149","ImagesTennis/TR110.png","190","test",".","image-keyboard-response","664","582173","0.0-4.0-1.240","true"
"907","ImagesSoccer/VR92.5.png","190","test",",","image-keyboard-response","666","583583","0.0-4.0-1.241","false"
"546","ImagesSoccer/VL107.5.png","188","test",",","image-keyboard-response","668","584630","0.0-4.0-1.242","true"
"711","ImagesTennis/TR107.5.png","190","test",".","image-keyboard-response","670","585843","0.0-4.0-1.243","true"
"622","ImagesSoccer/VR105.png","190","test",".","image-keyboard-response","672","586967","0.0-4.0-1.244","true"
"491","ImagesDirect/VL107.5.png","188","test",",","image-keyboard-response","674","587960","0.0-4.0-1.245","true"
"543","ImagesDirect/VR110.png","190","test",".","image-keyboard-response","676","589006","0.0-4.0-1.246","true"
"604","ImagesSoccer/VR110.png","190","test",".","image-keyboard-response","678","590112","0.0-4.0-1.247","true"
"719","ImagesTennis/TR102.5.png","190","test",".","image-keyboard-response","680","591333","0.0-4.0-1.248","true"
"855","ImagesDirect/VL95.png","190","test",".","image-keyboard-response","682","592689","0.0-4.0-1.249","true"
"450","ImagesSoccer/VL100.png","188","test",".","image-keyboard-response","684","593641","0.0-4.0-1.250","false"
"897","ImagesSoccer/VL92.5.png","190","test",".","image-keyboard-response","686","595040","0.0-4.0-1.251","true"
"4594","ImagesDirect/VL97.5.png","188","test",".","image-keyboard-response","688","600136","0.0-4.0-1.252","false"
"684","ImagesDirect/VL92.5.png","190","test",".","image-keyboard-response","690","601323","0.0-4.0-1.253","true"
"1253","ImagesDirect/VL100.png","188","test",".","image-keyboard-response","692","603077","0.0-4.0-1.254","false"
"1184","ImagesSoccer/VR100.png","190","test",".","image-keyboard-response","694","604763","0.0-4.0-1.255","true"
"1333","ImagesDirect/VR95.png","188","test",",","image-keyboard-response","696","606598","0.0-4.0-1.256","true"
"1343","ImagesSoccer/VL95.png","190","test",".","image-keyboard-response","698","608443","0.0-4.0-1.257","true"
"735","ImagesDirect/VR105.png","190","test",".","image-keyboard-response","700","609680","0.0-4.0-1.258","true"
"2228","ImagesTennis/TR97.5.png","188","test",",","image-keyboard-response","702","612411","0.0-4.0-1.259","true"
"574","ImagesDirect/VL110.png","190","test",",","image-keyboard-response","704","613487","0.0-4.0-1.260","false"
"819","ImagesTennis/TR100.png","190","test",".","image-keyboard-response","706","614810","0.0-4.0-1.261","true"
"687","ImagesTennis/TR92.5.png","188","test",",","image-keyboard-response","708","615999","0.0-4.0-1.262","true"
"698","ImagesSoccer/VL102.5.png","188","test",",","image-keyboard-response","710","617201","0.0-4.0-1.263","true"
"989","ImagesSoccer/VL90.png","190","test",".","image-keyboard-response","712","618691","0.0-4.0-1.264","true"
"633","ImagesSoccer/VL97.5.png","190","test",".","image-keyboard-response","714","619826","0.0-4.0-1.265","true"
"907","ImagesDirect/VR92.5.png","188","test",",","image-keyboard-response","716","621235","0.0-4.0-1.266","true"
"679","ImagesTennis/TL107.5.png","188","test",",","image-keyboard-response","718","622415","0.0-4.0-1.267","true"
"838","ImagesTennis/TL105.png","188","test",",","image-keyboard-response","720","623755","0.0-4.0-1.268","true"
"630","ImagesDirect/VL105.png","188","test",",","image-keyboard-response","722","624886","0.0-4.0-1.269","true"
