"rt","stimulus","key_press","test_part","correct_response","trial_type","trial_index","time_elapsed","internal_node_id","correct"
"11125","ImagesCoins/10R92.5.png","188","test",",","image-keyboard-response","4","109420","0.0-3.0-1.0","true"
"19338","ImagesCoins/10R110.png","188","test",".","image-keyboard-response","6","129262","0.0-3.0-1.1","false"
"4516","ImagesCoins/10R97.5.png","188","test",",","image-keyboard-response","8","134281","0.0-3.0-1.2","true"
"5794","ImagesCoins/10L92.5.png","190","test",".","image-keyboard-response","10","140578","0.0-3.0-1.3","true"
"6530","ImagesCoins/10L97.5.png","190","test",".","image-keyboard-response","12","147611","0.0-3.0-1.4","true"
"57070","ImagesCoins/10R90.png","188","test",",","image-keyboard-response","14","205186","0.0-3.0-1.5","true"
"5420","ImagesCoins/10L105.png","190","test",",","image-keyboard-response","16","211114","0.0-3.0-1.6","false"
"1522","ImagesCoins/10L102.5.png","190","test",",","image-keyboard-response","18","213138","0.0-3.0-1.7","false"
"3428","ImagesCoins/10R102.5.png","188","test",".","image-keyboard-response","20","217067","0.0-3.0-1.8","false"
"1633","ImagesCoins/10R95.png","188","test",",","image-keyboard-response","22","219202","0.0-3.0-1.9","true"
"3835","ImagesCoins/10R105.png","188","test",".","image-keyboard-response","24","223540","0.0-3.0-1.10","false"
"1728","ImagesCoins/10L110.png","190","test",",","image-keyboard-response","26","225771","0.0-3.0-1.11","false"
"4628","ImagesCoins/10R100.png","188","test",".","image-keyboard-response","28","230902","0.0-3.0-1.12","false"
"4059","ImagesCoins/10L100.png","190","test",".","image-keyboard-response","30","235463","0.0-3.0-1.13","true"
"1281","ImagesCoins/10L95.png","190","test",".","image-keyboard-response","32","237247","0.0-3.0-1.14","true"
"18151","ImagesCoins/10R107.5.png","188","test",".","image-keyboard-response","34","255899","0.0-3.0-1.15","false"
"1530","ImagesCoins/10L107.5.png","190","test",",","image-keyboard-response","36","257933","0.0-3.0-1.16","false"
"3697","ImagesCoins/10L90.png","190","test",".","image-keyboard-response","38","262134","0.0-3.0-1.17","true"
"865","ImagesCoins/10L100.png","190","test",".","image-keyboard-response","40","263501","0.0-3.0-1.18","true"
"929","ImagesCoins/10R107.5.png","188","test",".","image-keyboard-response","42","264934","0.0-3.0-1.19","false"
"12204","ImagesCoins/10R110.png","190","test",".","image-keyboard-response","44","277641","0.0-3.0-1.20","true"
"3864","ImagesCoins/10L102.5.png","188","test",",","image-keyboard-response","46","282010","0.0-3.0-1.21","true"
"5530","ImagesCoins/10L95.png","190","test",".","image-keyboard-response","48","288043","0.0-3.0-1.22","true"
"7786","ImagesCoins/10R100.png","190","test",".","image-keyboard-response","50","296332","0.0-3.0-1.23","true"
"1299","ImagesCoins/10R95.png","188","test",",","image-keyboard-response","52","298133","0.0-3.0-1.24","true"
"5930","ImagesCoins/10L97.5.png","190","test",".","image-keyboard-response","54","304567","0.0-3.0-1.25","true"
"2257","ImagesCoins/10L90.png","190","test",".","image-keyboard-response","56","307328","0.0-3.0-1.26","true"
"1354","ImagesCoins/10R90.png","188","test",",","image-keyboard-response","58","309184","0.0-3.0-1.27","true"
"1394","ImagesCoins/10L107.5.png","188","test",",","image-keyboard-response","60","311081","0.0-3.0-1.28","true"
"1105","ImagesCoins/10L110.png","188","test",",","image-keyboard-response","62","312689","0.0-3.0-1.29","true"
"925","ImagesCoins/10L92.5.png","190","test",".","image-keyboard-response","64","314116","0.0-3.0-1.30","true"
"9311","ImagesCoins/10R97.5.png","188","test",",","image-keyboard-response","66","323931","0.0-3.0-1.31","true"
"1112","ImagesCoins/10R92.5.png","188","test",",","image-keyboard-response","68","325548","0.0-3.0-1.32","true"
"935","ImagesCoins/10L105.png","188","test",",","image-keyboard-response","70","326987","0.0-3.0-1.33","true"
"618","ImagesCoins/10R102.5.png","190","test",".","image-keyboard-response","72","328109","0.0-3.0-1.34","true"
"657","ImagesCoins/10R105.png","190","test",".","image-keyboard-response","74","329268","0.0-3.0-1.35","true"
"931","ImagesCoins/10L92.5.png","190","test",".","image-keyboard-response","76","330701","0.0-3.0-1.36","true"
"793","ImagesCoins/10R95.png","188","test",",","image-keyboard-response","78","331997","0.0-3.0-1.37","true"
"1233","ImagesCoins/10L95.png","190","test",".","image-keyboard-response","80","333734","0.0-3.0-1.38","true"
"829","ImagesCoins/10R110.png","190","test",".","image-keyboard-response","82","335066","0.0-3.0-1.39","true"
"1118","ImagesCoins/10R102.5.png","188","test",".","image-keyboard-response","84","336686","0.0-3.0-1.40","false"
"761","ImagesCoins/10L90.png","190","test",".","image-keyboard-response","86","337951","0.0-3.0-1.41","true"
"714","ImagesCoins/10R107.5.png","190","test",".","image-keyboard-response","88","339167","0.0-3.0-1.42","true"
"738","ImagesCoins/10R92.5.png","188","test",",","image-keyboard-response","90","340407","0.0-3.0-1.43","true"
"1258","ImagesCoins/10L102.5.png","188","test",",","image-keyboard-response","92","342168","0.0-3.0-1.44","true"
"2322","ImagesCoins/10L100.png","190","test",".","image-keyboard-response","94","344992","0.0-3.0-1.45","true"
"817","ImagesCoins/10R100.png","190","test",".","image-keyboard-response","96","346312","0.0-3.0-1.46","true"
"753","ImagesCoins/10L107.5.png","188","test",",","image-keyboard-response","98","347569","0.0-3.0-1.47","true"
"1130","ImagesCoins/10L105.png","188","test",",","image-keyboard-response","100","349201","0.0-3.0-1.48","true"
"1065","ImagesCoins/10R90.png","188","test",",","image-keyboard-response","102","350769","0.0-3.0-1.49","true"
"649","ImagesCoins/10L110.png","188","test",",","image-keyboard-response","104","351922","0.0-3.0-1.50","true"
"1034","ImagesCoins/10R97.5.png","188","test",",","image-keyboard-response","106","353458","0.0-3.0-1.51","true"
"1072","ImagesCoins/10L97.5.png","190","test",".","image-keyboard-response","108","355033","0.0-3.0-1.52","true"
"818","ImagesCoins/10R105.png","190","test",".","image-keyboard-response","110","356355","0.0-3.0-1.53","true"
"625","ImagesCoins/10R105.png","190","test",".","image-keyboard-response","112","357482","0.0-3.0-1.54","true"
"658","ImagesCoins/10R90.png","188","test",",","image-keyboard-response","114","358643","0.0-3.0-1.55","true"
"1001","ImagesCoins/10R100.png","188","test",".","image-keyboard-response","116","360148","0.0-3.0-1.56","false"
"1010","ImagesCoins/10L105.png","188","test",",","image-keyboard-response","118","361660","0.0-3.0-1.57","true"
"929","ImagesCoins/10R102.5.png","190","test",".","image-keyboard-response","120","363092","0.0-3.0-1.58","true"
"697","ImagesCoins/10R95.png","188","test",",","image-keyboard-response","122","364292","0.0-3.0-1.59","true"
"729","ImagesCoins/10L110.png","188","test",",","image-keyboard-response","124","365525","0.0-3.0-1.60","true"
"776","ImagesCoins/10L90.png","190","test",".","image-keyboard-response","126","366804","0.0-3.0-1.61","true"
"1137","ImagesCoins/10L95.png","190","test",".","image-keyboard-response","128","368445","0.0-3.0-1.62","true"
"801","ImagesCoins/10R97.5.png","188","test",",","image-keyboard-response","130","369750","0.0-3.0-1.63","true"
"874","ImagesCoins/10R92.5.png","188","test",",","image-keyboard-response","132","371126","0.0-3.0-1.64","true"
"888","ImagesCoins/10R110.png","190","test",".","image-keyboard-response","134","372518","0.0-3.0-1.65","true"
"4746","ImagesCoins/10L102.5.png","188","test",",","image-keyboard-response","136","377768","0.0-3.0-1.66","true"
"897","ImagesCoins/10R107.5.png","190","test",".","image-keyboard-response","138","379170","0.0-3.0-1.67","true"
"1303","ImagesCoins/10L97.5.png","190","test",".","image-keyboard-response","140","380977","0.0-3.0-1.68","true"
"928","ImagesCoins/10L107.5.png","188","test",",","image-keyboard-response","142","382408","0.0-3.0-1.69","true"
"778","ImagesCoins/10L92.5.png","190","test",".","image-keyboard-response","144","383688","0.0-3.0-1.70","true"
"951","ImagesCoins/10L100.png","188","test",".","image-keyboard-response","146","385145","0.0-3.0-1.71","false"
"1041","ImagesCoins/10R92.5.png","188","test",",","image-keyboard-response","148","386690","0.0-3.0-1.72","true"
"825","ImagesCoins/10R105.png","190","test",".","image-keyboard-response","150","388017","0.0-3.0-1.73","true"
"892","ImagesCoins/10L90.png","190","test",".","image-keyboard-response","152","389411","0.0-3.0-1.74","true"
"3450","ImagesCoins/10L110.png","188","test",",","image-keyboard-response","154","393364","0.0-3.0-1.75","true"
"832","ImagesCoins/10L92.5.png","190","test",".","image-keyboard-response","156","394699","0.0-3.0-1.76","true"
"881","ImagesCoins/10L102.5.png","188","test",",","image-keyboard-response","158","396084","0.0-3.0-1.77","true"
"4202","ImagesCoins/10R97.5.png","190","test",",","image-keyboard-response","160","400789","0.0-3.0-1.78","false"
"1057","ImagesCoins/10R95.png","188","test",",","image-keyboard-response","162","402349","0.0-3.0-1.79","true"
"993","ImagesCoins/10R100.png","190","test",".","image-keyboard-response","164","403845","0.0-3.0-1.80","true"
"1168","ImagesCoins/10L97.5.png","190","test",".","image-keyboard-response","166","405517","0.0-3.0-1.81","true"
"610","ImagesCoins/10R107.5.png","190","test",".","image-keyboard-response","168","406630","0.0-3.0-1.82","true"
"617","ImagesCoins/10R110.png","190","test",".","image-keyboard-response","170","407750","0.0-3.0-1.83","true"
"802","ImagesCoins/10L105.png","188","test",",","image-keyboard-response","172","409055","0.0-3.0-1.84","true"
"1042","ImagesCoins/10L107.5.png","188","test",",","image-keyboard-response","174","410599","0.0-3.0-1.85","true"
"1424","ImagesCoins/10R90.png","188","test",",","image-keyboard-response","176","412526","0.0-3.0-1.86","true"
"961","ImagesCoins/10L100.png","190","test",".","image-keyboard-response","178","413991","0.0-3.0-1.87","true"
"1003","ImagesCoins/10L95.png","190","test",".","image-keyboard-response","180","415496","0.0-3.0-1.88","true"
"2243","ImagesCoins/10R102.5.png","190","test",".","image-keyboard-response","182","418241","0.0-3.0-1.89","true"
"15104","ImagesDirect/VR105.png","190","test",".","image-keyboard-response","184","433848","0.0-4.0-1.0","true"
"18483","ImagesTennis/TL90.png","190","test",".","image-keyboard-response","186","452833","0.0-4.0-1.1","true"
"1855","ImagesTennis/TR107.5.png","190","test",".","image-keyboard-response","188","455191","0.0-4.0-1.2","true"
"1427","ImagesTennis/TR110.png","190","test",".","image-keyboard-response","190","457121","0.0-4.0-1.3","true"
"6868","ImagesTennis/TR102.5.png","190","test",".","image-keyboard-response","192","464492","0.0-4.0-1.4","true"
"5307","ImagesSoccer/VL97.5.png","188","test",".","image-keyboard-response","194","470302","0.0-4.0-1.5","false"
"1342","ImagesTennis/TL105.png","188","test",",","image-keyboard-response","196","472147","0.0-4.0-1.6","true"
"3124","ImagesDirect/VL102.5.png","190","test",",","image-keyboard-response","198","475773","0.0-4.0-1.7","false"
"1131","ImagesSoccer/VR105.png","190","test",".","image-keyboard-response","200","477407","0.0-4.0-1.8","true"
"1705","ImagesDirect/VR100.png","188","test",".","image-keyboard-response","202","479615","0.0-4.0-1.9","false"
"1145","ImagesSoccer/VR92.5.png","188","test",",","image-keyboard-response","204","481263","0.0-4.0-1.10","true"
"1209","ImagesDirect/VR97.5.png","190","test",",","image-keyboard-response","206","482975","0.0-4.0-1.11","false"
"882","ImagesTennis/TL92.5.png","190","test",".","image-keyboard-response","208","484360","0.0-4.0-1.12","true"
"1097","ImagesTennis/TL102.5.png","188","test",",","image-keyboard-response","210","485960","0.0-4.0-1.13","true"
"1051","ImagesTennis/TR92.5.png","188","test",",","image-keyboard-response","212","487513","0.0-4.0-1.14","true"
"921","ImagesSoccer/VL92.5.png","190","test",".","image-keyboard-response","214","488937","0.0-4.0-1.15","true"
"1561","ImagesDirect/VL90.png","190","test",".","image-keyboard-response","216","491001","0.0-4.0-1.16","true"
"1183","ImagesSoccer/VR102.5.png","190","test",".","image-keyboard-response","218","492687","0.0-4.0-1.17","true"
"794","ImagesTennis/TL110.png","188","test",",","image-keyboard-response","220","493985","0.0-4.0-1.18","true"
"953","ImagesSoccer/VL95.png","190","test",".","image-keyboard-response","222","495440","0.0-4.0-1.19","true"
"67098","ImagesSoccer/VL105.png","188","test",",","image-keyboard-response","224","563040","0.0-4.0-1.20","true"
"3938","ImagesTennis/TL100.png","190","test",".","image-keyboard-response","226","567480","0.0-4.0-1.21","true"
"953","ImagesSoccer/VL100.png","188","test",".","image-keyboard-response","228","568936","0.0-4.0-1.22","false"
"705","ImagesSoccer/VL90.png","190","test",".","image-keyboard-response","230","570143","0.0-4.0-1.23","true"
"1913","ImagesSoccer/VR97.5.png","190","test",",","image-keyboard-response","232","572559","0.0-4.0-1.24","false"
"1240","ImagesTennis/TL95.png","190","test",".","image-keyboard-response","234","574302","0.0-4.0-1.25","true"
"1737","ImagesDirect/VR95.png","188","test",",","image-keyboard-response","236","576541","0.0-4.0-1.26","true"
"954","ImagesDirect/VR110.png","190","test",".","image-keyboard-response","238","577999","0.0-4.0-1.27","true"
"15071","ImagesSoccer/VR90.png","188","test",",","image-keyboard-response","240","593573","0.0-4.0-1.28","true"
"7145","ImagesTennis/TL97.5.png","190","test",".","image-keyboard-response","242","601220","0.0-4.0-1.29","true"
"30558","ImagesSoccer/VR100.png","188","test",".","image-keyboard-response","244","632281","0.0-4.0-1.30","false"
"1736","ImagesDirect/VR92.5.png","188","test",",","image-keyboard-response","246","634519","0.0-4.0-1.31","true"
"2595","ImagesSoccer/VL102.5.png","188","test",",","image-keyboard-response","248","637616","0.0-4.0-1.32","true"
"1196","ImagesTennis/TR100.png","190","test",".","image-keyboard-response","250","639314","0.0-4.0-1.33","true"
"1643","ImagesSoccer/VL107.5.png","188","test",",","image-keyboard-response","252","641463","0.0-4.0-1.34","true"
"1210","ImagesDirect/VL97.5.png","190","test",".","image-keyboard-response","254","643175","0.0-4.0-1.35","true"
"1090","ImagesTennis/TR105.png","190","test",".","image-keyboard-response","256","644767","0.0-4.0-1.36","true"
"1104","ImagesDirect/VR90.png","188","test",",","image-keyboard-response","258","646375","0.0-4.0-1.37","true"
"1081","ImagesDirect/VR107.5.png","190","test",".","image-keyboard-response","260","647957","0.0-4.0-1.38","true"
"1282","ImagesSoccer/VR95.png","190","test",",","image-keyboard-response","262","649742","0.0-4.0-1.39","false"
"1425","ImagesDirect/VL92.5.png","190","test",".","image-keyboard-response","264","651670","0.0-4.0-1.40","true"
"2481","ImagesTennis/TR97.5.png","188","test",",","image-keyboard-response","266","654654","0.0-4.0-1.41","true"
"913","ImagesTennis/TR90.png","188","test",",","image-keyboard-response","268","656070","0.0-4.0-1.42","true"
"1273","ImagesDirect/VL105.png","188","test",",","image-keyboard-response","270","657846","0.0-4.0-1.43","true"
"1247","ImagesDirect/VL107.5.png","188","test",",","image-keyboard-response","272","659596","0.0-4.0-1.44","true"
"793","ImagesDirect/VL110.png","188","test",",","image-keyboard-response","274","660892","0.0-4.0-1.45","true"
"1441","ImagesTennis/TL107.5.png","188","test",",","image-keyboard-response","276","662837","0.0-4.0-1.46","true"
"66192","ImagesSoccer/VR110.png","190","test",".","image-keyboard-response","278","729533","0.0-4.0-1.47","true"
"68985","ImagesSoccer/VL110.png","188","test",",","image-keyboard-response","280","799021","0.0-4.0-1.48","true"
"943","ImagesDirect/VL100.png","190","test",".","image-keyboard-response","282","800467","0.0-4.0-1.49","true"
"667","ImagesSoccer/VR107.5.png","190","test",".","image-keyboard-response","284","801636","0.0-4.0-1.50","true"
"1248","ImagesDirect/VL95.png","190","test",".","image-keyboard-response","286","803387","0.0-4.0-1.51","true"
"787","ImagesDirect/VR102.5.png","190","test",".","image-keyboard-response","288","804676","0.0-4.0-1.52","true"
"872","ImagesTennis/TR95.png","188","test",",","image-keyboard-response","290","806051","0.0-4.0-1.53","true"
"616","ImagesDirect/VR105.png","190","test",".","image-keyboard-response","292","807172","0.0-4.0-1.54","true"
"857","ImagesDirect/VR102.5.png","190","test",".","image-keyboard-response","294","808532","0.0-4.0-1.55","true"
"785","ImagesDirect/VL102.5.png","188","test",",","image-keyboard-response","296","809820","0.0-4.0-1.56","true"
"577","ImagesSoccer/VL107.5.png","188","test",",","image-keyboard-response","298","810899","0.0-4.0-1.57","true"
"617","ImagesTennis/TR107.5.png","190","test",".","image-keyboard-response","300","812019","0.0-4.0-1.58","true"
"873","ImagesTennis/TL95.png","190","test",".","image-keyboard-response","302","813395","0.0-4.0-1.59","true"
"593","ImagesSoccer/VR107.5.png","190","test",".","image-keyboard-response","304","814491","0.0-4.0-1.60","true"
"696","ImagesDirect/VR92.5.png","188","test",",","image-keyboard-response","306","815691","0.0-4.0-1.61","true"
"592","ImagesDirect/VL105.png","188","test",",","image-keyboard-response","308","816787","0.0-4.0-1.62","true"
"648","ImagesTennis/TL97.5.png","190","test",".","image-keyboard-response","310","817938","0.0-4.0-1.63","true"
"609","ImagesTennis/TR110.png","190","test",".","image-keyboard-response","312","819051","0.0-4.0-1.64","true"
"721","ImagesSoccer/VL95.png","190","test",".","image-keyboard-response","314","820274","0.0-4.0-1.65","true"
"681","ImagesTennis/TR92.5.png","188","test",",","image-keyboard-response","316","821458","0.0-4.0-1.66","true"
"617","ImagesTennis/TR102.5.png","190","test",".","image-keyboard-response","318","822578","0.0-4.0-1.67","true"
"850","ImagesDirect/VR95.png","188","test",",","image-keyboard-response","320","823930","0.0-4.0-1.68","true"
"960","ImagesSoccer/VR90.png","188","test",",","image-keyboard-response","322","825394","0.0-4.0-1.69","true"
"849","ImagesSoccer/VL97.5.png","190","test",".","image-keyboard-response","324","826746","0.0-4.0-1.70","true"
"881","ImagesDirect/VR97.5.png","188","test",",","image-keyboard-response","326","828129","0.0-4.0-1.71","true"
"689","ImagesDirect/VL97.5.png","188","test",".","image-keyboard-response","328","829321","0.0-4.0-1.72","false"
"833","ImagesTennis/TR97.5.png","188","test",",","image-keyboard-response","330","830657","0.0-4.0-1.73","true"
"1009","ImagesDirect/VR90.png","188","test",",","image-keyboard-response","332","832169","0.0-4.0-1.74","true"
"631","ImagesDirect/VR110.png","190","test",".","image-keyboard-response","334","833304","0.0-4.0-1.75","true"
"1033","ImagesSoccer/VL92.5.png","190","test",".","image-keyboard-response","336","834839","0.0-4.0-1.76","true"
"586","ImagesSoccer/VL102.5.png","188","test",",","image-keyboard-response","338","835928","0.0-4.0-1.77","true"
"673","ImagesTennis/TR90.png","188","test",",","image-keyboard-response","340","837104","0.0-4.0-1.78","true"
"865","ImagesSoccer/VL100.png","188","test",".","image-keyboard-response","342","838472","0.0-4.0-1.79","false"
"720","ImagesSoccer/VL110.png","188","test",",","image-keyboard-response","344","839696","0.0-4.0-1.80","true"
"672","ImagesSoccer/VR110.png","190","test",".","image-keyboard-response","346","840871","0.0-4.0-1.81","true"
"938","ImagesTennis/TR100.png","188","test",".","image-keyboard-response","348","842312","0.0-4.0-1.82","false"
"657","ImagesDirect/VR107.5.png","190","test",".","image-keyboard-response","350","843471","0.0-4.0-1.83","true"
"1026","ImagesDirect/VL90.png","190","test",".","image-keyboard-response","352","845000","0.0-4.0-1.84","true"
"577","ImagesSoccer/VR105.png","190","test",".","image-keyboard-response","354","846079","0.0-4.0-1.85","true"
"705","ImagesSoccer/VR100.png","188","test",".","image-keyboard-response","356","847287","0.0-4.0-1.86","false"
"713","ImagesTennis/TL92.5.png","190","test",".","image-keyboard-response","358","848503","0.0-4.0-1.87","true"
"847","ImagesSoccer/VR95.png","188","test",",","image-keyboard-response","360","849853","0.0-4.0-1.88","true"
"1042","ImagesSoccer/VL90.png","190","test",".","image-keyboard-response","362","851398","0.0-4.0-1.89","true"
"579","ImagesTennis/TL107.5.png","188","test",",","image-keyboard-response","364","852478","0.0-4.0-1.90","true"
"665","ImagesSoccer/VR102.5.png","190","test",".","image-keyboard-response","366","853646","0.0-4.0-1.91","true"
"864","ImagesSoccer/VR97.5.png","188","test",",","image-keyboard-response","368","855014","0.0-4.0-1.92","true"
"552","ImagesDirect/VL107.5.png","188","test",",","image-keyboard-response","370","856070","0.0-4.0-1.93","true"
"633","ImagesDirect/VL100.png","190","test",".","image-keyboard-response","372","857206","0.0-4.0-1.94","true"
"641","ImagesTennis/TR95.png","188","test",",","image-keyboard-response","374","858350","0.0-4.0-1.95","true"
"1048","ImagesDirect/VL92.5.png","190","test",".","image-keyboard-response","376","859900","0.0-4.0-1.96","true"
"570","ImagesDirect/VL110.png","188","test",",","image-keyboard-response","378","860973","0.0-4.0-1.97","true"
"744","ImagesTennis/TR105.png","190","test",".","image-keyboard-response","380","862220","0.0-4.0-1.98","true"
"553","ImagesSoccer/VL105.png","188","test",",","image-keyboard-response","382","863276","0.0-4.0-1.99","true"
"770","ImagesTennis/TL100.png","190","test",".","image-keyboard-response","384","864549","0.0-4.0-1.100","true"
"1278","ImagesDirect/VL95.png","190","test",".","image-keyboard-response","386","866333","0.0-4.0-1.101","true"
"960","ImagesSoccer/VR92.5.png","188","test",",","image-keyboard-response","388","867797","0.0-4.0-1.102","true"
"697","ImagesTennis/TL110.png","188","test",",","image-keyboard-response","390","868996","0.0-4.0-1.103","true"
"1425","ImagesTennis/TL90.png","190","test",".","image-keyboard-response","392","870924","0.0-4.0-1.104","true"
"1168","ImagesTennis/TL102.5.png","190","test",",","image-keyboard-response","394","872595","0.0-4.0-1.105","false"
"1953","ImagesTennis/TL105.png","188","test",",","image-keyboard-response","396","875052","0.0-4.0-1.106","true"
"882","ImagesDirect/VR100.png","190","test",".","image-keyboard-response","398","876436","0.0-4.0-1.107","true"
"1384","ImagesDirect/VL90.png","190","test",".","image-keyboard-response","400","878323","0.0-4.0-1.108","true"
"722","ImagesDirect/VR92.5.png","188","test",",","image-keyboard-response","402","879548","0.0-4.0-1.109","true"
"633","ImagesSoccer/VL110.png","188","test",",","image-keyboard-response","404","880683","0.0-4.0-1.110","true"
"688","ImagesDirect/VR102.5.png","190","test",".","image-keyboard-response","406","881874","0.0-4.0-1.111","true"
"677","ImagesTennis/TR92.5.png","188","test",",","image-keyboard-response","408","883054","0.0-4.0-1.112","true"
"837","ImagesTennis/TL95.png","190","test",".","image-keyboard-response","410","884395","0.0-4.0-1.113","true"
"569","ImagesDirect/VL107.5.png","188","test",",","image-keyboard-response","412","885467","0.0-4.0-1.114","true"
"1096","ImagesTennis/TR97.5.png","188","test",",","image-keyboard-response","414","887066","0.0-4.0-1.115","true"
"921","ImagesDirect/VL100.png","188","test",".","image-keyboard-response","416","888490","0.0-4.0-1.116","false"
"817","ImagesTennis/TR107.5.png","190","test",".","image-keyboard-response","418","889810","0.0-4.0-1.117","true"
"690","ImagesTennis/TR105.png","188","test",".","image-keyboard-response","420","891002","0.0-4.0-1.118","false"
"593","ImagesTennis/TR95.png","188","test",",","image-keyboard-response","422","892098","0.0-4.0-1.119","true"
"1079","ImagesDirect/VL102.5.png","188","test",",","image-keyboard-response","424","893682","0.0-4.0-1.120","true"
"1288","ImagesTennis/TL90.png","190","test",".","image-keyboard-response","426","895474","0.0-4.0-1.121","true"
"769","ImagesSoccer/VR102.5.png","190","test",".","image-keyboard-response","428","896745","0.0-4.0-1.122","true"
"683","ImagesSoccer/VR107.5.png","190","test",".","image-keyboard-response","430","897931","0.0-4.0-1.123","true"
"872","ImagesSoccer/VL90.png","190","test",".","image-keyboard-response","432","899305","0.0-4.0-1.124","true"
"1209","ImagesDirect/VR95.png","188","test",",","image-keyboard-response","434","901017","0.0-4.0-1.125","true"
"807","ImagesTennis/TR90.png","188","test",",","image-keyboard-response","436","902327","0.0-4.0-1.126","true"
"3138","ImagesSoccer/VR100.png","190","test",".","image-keyboard-response","438","905968","0.0-4.0-1.127","true"
"793","ImagesSoccer/VR110.png","190","test",".","image-keyboard-response","440","907264","0.0-4.0-1.128","true"
"856","ImagesDirect/VR107.5.png","190","test",".","image-keyboard-response","442","908624","0.0-4.0-1.129","true"
"664","ImagesTennis/TL110.png","188","test",",","image-keyboard-response","444","909792","0.0-4.0-1.130","true"
"784","ImagesSoccer/VR90.png","188","test",",","image-keyboard-response","446","911080","0.0-4.0-1.131","true"
"753","ImagesDirect/VR100.png","190","test",".","image-keyboard-response","448","912336","0.0-4.0-1.132","true"
"1497","ImagesTennis/TR102.5.png","190","test",".","image-keyboard-response","450","914335","0.0-4.0-1.133","true"
"657","ImagesDirect/VR90.png","188","test",",","image-keyboard-response","452","915496","0.0-4.0-1.134","true"
"712","ImagesSoccer/VR105.png","190","test",".","image-keyboard-response","454","916711","0.0-4.0-1.135","true"
"632","ImagesDirect/VL105.png","188","test",",","image-keyboard-response","456","917847","0.0-4.0-1.136","true"
"976","ImagesSoccer/VL92.5.png","190","test",".","image-keyboard-response","458","919327","0.0-4.0-1.137","true"
"639","ImagesTennis/TL97.5.png","188","test",".","image-keyboard-response","460","920469","0.0-4.0-1.138","false"
"595","ImagesTennis/TL107.5.png","188","test",",","image-keyboard-response","462","921566","0.0-4.0-1.139","true"
"905","ImagesSoccer/VL102.5.png","188","test",",","image-keyboard-response","464","922973","0.0-4.0-1.140","true"
"730","ImagesDirect/VL110.png","188","test",",","image-keyboard-response","466","924205","0.0-4.0-1.141","true"
"979","ImagesSoccer/VR97.5.png","190","test",",","image-keyboard-response","468","925686","0.0-4.0-1.142","false"
"919","ImagesTennis/TL105.png","188","test",",","image-keyboard-response","470","927109","0.0-4.0-1.143","true"
"779","ImagesDirect/VL97.5.png","190","test",".","image-keyboard-response","472","928390","0.0-4.0-1.144","true"
"633","ImagesTennis/TL92.5.png","190","test",".","image-keyboard-response","474","929526","0.0-4.0-1.145","true"
"1655","ImagesTennis/TL100.png","190","test",".","image-keyboard-response","476","931685","0.0-4.0-1.146","true"
"882","ImagesTennis/TL102.5.png","190","test",",","image-keyboard-response","478","933069","0.0-4.0-1.147","false"
"745","ImagesSoccer/VL105.png","188","test",",","image-keyboard-response","480","934317","0.0-4.0-1.148","true"
"625","ImagesDirect/VR110.png","190","test",".","image-keyboard-response","482","935445","0.0-4.0-1.149","true"
"10088","ImagesSoccer/VL95.png","188","test",".","image-keyboard-response","484","946036","0.0-4.0-1.150","false"
"2872","ImagesDirect/VR97.5.png","188","test",",","image-keyboard-response","486","949411","0.0-4.0-1.151","true"
"1665","ImagesDirect/VR105.png","190","test",".","image-keyboard-response","488","951579","0.0-4.0-1.152","true"
"2697","ImagesSoccer/VL97.5.png","190","test",".","image-keyboard-response","490","954778","0.0-4.0-1.153","true"
"1024","ImagesSoccer/VR92.5.png","188","test",",","image-keyboard-response","492","956305","0.0-4.0-1.154","true"
"1346","ImagesDirect/VL95.png","190","test",".","image-keyboard-response","494","958154","0.0-4.0-1.155","true"
"824","ImagesSoccer/VL107.5.png","188","test",",","image-keyboard-response","496","959482","0.0-4.0-1.156","true"
"889","ImagesTennis/TR100.png","190","test",".","image-keyboard-response","498","960874","0.0-4.0-1.157","true"
"848","ImagesSoccer/VR95.png","188","test",",","image-keyboard-response","500","962226","0.0-4.0-1.158","true"
"1208","ImagesSoccer/VL100.png","188","test",".","image-keyboard-response","502","963937","0.0-4.0-1.159","false"
"681","ImagesTennis/TR110.png","190","test",".","image-keyboard-response","504","965121","0.0-4.0-1.160","true"
"1097","ImagesDirect/VL92.5.png","190","test",".","image-keyboard-response","506","966721","0.0-4.0-1.161","true"
"722","ImagesSoccer/VR90.png","188","test",",","image-keyboard-response","508","967945","0.0-4.0-1.162","true"
"992","ImagesTennis/TL100.png","190","test",".","image-keyboard-response","510","969441","0.0-4.0-1.163","true"
"800","ImagesSoccer/VL102.5.png","188","test",",","image-keyboard-response","512","970744","0.0-4.0-1.164","true"
"657","ImagesTennis/TL90.png","190","test",".","image-keyboard-response","514","971903","0.0-4.0-1.165","true"
"689","ImagesTennis/TR90.png","188","test",",","image-keyboard-response","516","973095","0.0-4.0-1.166","true"
"635","ImagesSoccer/VR97.5.png","190","test",",","image-keyboard-response","518","974232","0.0-4.0-1.167","false"
"993","ImagesDirect/VR92.5.png","188","test",",","image-keyboard-response","520","975728","0.0-4.0-1.168","true"
"544","ImagesSoccer/VR107.5.png","190","test",".","image-keyboard-response","522","976776","0.0-4.0-1.169","true"
"1200","ImagesTennis/TR97.5.png","188","test",",","image-keyboard-response","524","978479","0.0-4.0-1.170","true"
"1249","ImagesDirect/VL95.png","190","test",".","image-keyboard-response","526","980231","0.0-4.0-1.171","true"
"761","ImagesTennis/TR102.5.png","190","test",".","image-keyboard-response","528","981495","0.0-4.0-1.172","true"
"1065","ImagesSoccer/VR105.png","190","test",".","image-keyboard-response","530","983063","0.0-4.0-1.173","true"
"673","ImagesTennis/TR110.png","190","test",".","image-keyboard-response","532","984239","0.0-4.0-1.174","true"
"648","ImagesTennis/TL105.png","188","test",",","image-keyboard-response","534","985390","0.0-4.0-1.175","true"
"634","ImagesSoccer/VL107.5.png","188","test",",","image-keyboard-response","536","986527","0.0-4.0-1.176","true"
"776","ImagesSoccer/VL95.png","190","test",".","image-keyboard-response","538","987807","0.0-4.0-1.177","true"
"712","ImagesDirect/VL92.5.png","190","test",".","image-keyboard-response","540","989022","0.0-4.0-1.178","true"
"1113","ImagesDirect/VR105.png","188","test",".","image-keyboard-response","542","990638","0.0-4.0-1.179","false"
"1161","ImagesTennis/TL95.png","188","test",".","image-keyboard-response","544","992302","0.0-4.0-1.180","false"
"977","ImagesSoccer/VR95.png","188","test",",","image-keyboard-response","546","993782","0.0-4.0-1.181","true"
"880","ImagesDirect/VL90.png","190","test",".","image-keyboard-response","548","995166","0.0-4.0-1.182","true"
"705","ImagesSoccer/VR92.5.png","188","test",",","image-keyboard-response","550","996374","0.0-4.0-1.183","true"
"617","ImagesTennis/TL110.png","188","test",",","image-keyboard-response","552","997493","0.0-4.0-1.184","true"
"1137","ImagesDirect/VR102.5.png","190","test",".","image-keyboard-response","554","999134","0.0-4.0-1.185","true"
"625","ImagesTennis/TR100.png","188","test",".","image-keyboard-response","556","1000261","0.0-4.0-1.186","false"
"937","ImagesDirect/VL97.5.png","188","test",".","image-keyboard-response","558","1001701","0.0-4.0-1.187","false"
"655","ImagesDirect/VL100.png","188","test",".","image-keyboard-response","560","1002860","0.0-4.0-1.188","false"
"745","ImagesSoccer/VL92.5.png","188","test",".","image-keyboard-response","562","1004109","0.0-4.0-1.189","false"
"1480","ImagesSoccer/VL90.png","190","test",".","image-keyboard-response","564","1006093","0.0-4.0-1.190","true"
"841","ImagesDirect/VR90.png","188","test",",","image-keyboard-response","566","1007436","0.0-4.0-1.191","true"
"1944","ImagesTennis/TL102.5.png","190","test",",","image-keyboard-response","568","1009883","0.0-4.0-1.192","false"
"762","ImagesTennis/TR95.png","188","test",",","image-keyboard-response","570","1011148","0.0-4.0-1.193","true"
"1215","ImagesTennis/TR92.5.png","188","test",",","image-keyboard-response","572","1012867","0.0-4.0-1.194","true"
"700","ImagesDirect/VR107.5.png","190","test",".","image-keyboard-response","574","1014068","0.0-4.0-1.195","true"
"753","ImagesDirect/VL102.5.png","188","test",",","image-keyboard-response","576","1015324","0.0-4.0-1.196","true"
"737","ImagesTennis/TL92.5.png","190","test",".","image-keyboard-response","578","1016564","0.0-4.0-1.197","true"
"608","ImagesDirect/VL110.png","188","test",",","image-keyboard-response","580","1017675","0.0-4.0-1.198","true"
"695","ImagesDirect/VR97.5.png","190","test",",","image-keyboard-response","582","1018874","0.0-4.0-1.199","false"
"721","ImagesSoccer/VR110.png","190","test",".","image-keyboard-response","584","1020099","0.0-4.0-1.200","true"
"799","ImagesSoccer/VL105.png","188","test",",","image-keyboard-response","586","1021402","0.0-4.0-1.201","true"
"705","ImagesTennis/TL97.5.png","190","test",".","image-keyboard-response","588","1022610","0.0-4.0-1.202","true"
"560","ImagesDirect/VL107.5.png","188","test",",","image-keyboard-response","590","1023674","0.0-4.0-1.203","true"
"866","ImagesSoccer/VL97.5.png","190","test",".","image-keyboard-response","592","1025042","0.0-4.0-1.204","true"
"785","ImagesDirect/VR110.png","190","test",".","image-keyboard-response","594","1026330","0.0-4.0-1.205","true"
"1346","ImagesSoccer/VR102.5.png","190","test",".","image-keyboard-response","596","1028178","0.0-4.0-1.206","true"
"1432","ImagesSoccer/VR100.png","190","test",".","image-keyboard-response","598","1030114","0.0-4.0-1.207","true"
"441","ImagesSoccer/VL100.png","188","test",".","image-keyboard-response","600","1031058","0.0-4.0-1.208","false"
"496","ImagesSoccer/VL110.png","188","test",",","image-keyboard-response","602","1032057","0.0-4.0-1.209","true"
"560","ImagesDirect/VR95.png","190","test",",","image-keyboard-response","604","1033120","0.0-4.0-1.210","false"
"625","ImagesTennis/TR107.5.png","190","test",".","image-keyboard-response","606","1034249","0.0-4.0-1.211","true"
"504","ImagesTennis/TL107.5.png","188","test",",","image-keyboard-response","608","1035256","0.0-4.0-1.212","true"
"562","ImagesDirect/VR100.png","190","test",".","image-keyboard-response","610","1036321","0.0-4.0-1.213","true"
"937","ImagesTennis/TR105.png","188","test",".","image-keyboard-response","612","1037761","0.0-4.0-1.214","false"
"568","ImagesDirect/VL105.png","188","test",",","image-keyboard-response","614","1038833","0.0-4.0-1.215","true"
"1024","ImagesTennis/TR102.5.png","190","test",".","image-keyboard-response","616","1040359","0.0-4.0-1.216","true"
"545","ImagesSoccer/VR110.png","190","test",".","image-keyboard-response","618","1041407","0.0-4.0-1.217","true"
"562","ImagesTennis/TR100.png","188","test",".","image-keyboard-response","620","1042472","0.0-4.0-1.218","false"
"561","ImagesDirect/VR107.5.png","190","test",".","image-keyboard-response","622","1043536","0.0-4.0-1.219","true"
"688","ImagesTennis/TR107.5.png","188","test",".","image-keyboard-response","624","1044728","0.0-4.0-1.220","false"
"720","ImagesSoccer/VL102.5.png","188","test",",","image-keyboard-response","626","1045952","0.0-4.0-1.221","true"
"1584","ImagesDirect/VL90.png","190","test",".","image-keyboard-response","628","1048040","0.0-4.0-1.222","true"
"624","ImagesDirect/VR105.png","190","test",".","image-keyboard-response","630","1049167","0.0-4.0-1.223","true"
"624","ImagesSoccer/VR92.5.png","188","test",",","image-keyboard-response","632","1050295","0.0-4.0-1.224","true"
"529","ImagesTennis/TR110.png","190","test",".","image-keyboard-response","634","1051327","0.0-4.0-1.225","true"
"585","ImagesDirect/VR110.png","190","test",".","image-keyboard-response","636","1052415","0.0-4.0-1.226","true"
"633","ImagesTennis/TR95.png","188","test",",","image-keyboard-response","638","1053551","0.0-4.0-1.227","true"
"545","ImagesSoccer/VR107.5.png","190","test",".","image-keyboard-response","640","1054599","0.0-4.0-1.228","true"
"647","ImagesSoccer/VL97.5.png","188","test",".","image-keyboard-response","642","1055750","0.0-4.0-1.229","false"
"553","ImagesTennis/TL90.png","190","test",".","image-keyboard-response","644","1056807","0.0-4.0-1.230","true"
"463","ImagesTennis/TL102.5.png","188","test",",","image-keyboard-response","646","1057775","0.0-4.0-1.231","true"
"688","ImagesSoccer/VL95.png","188","test",".","image-keyboard-response","648","1058966","0.0-4.0-1.232","false"
"617","ImagesDirect/VR90.png","188","test",",","image-keyboard-response","650","1060086","0.0-4.0-1.233","true"
"1137","ImagesSoccer/VL92.5.png","190","test",".","image-keyboard-response","652","1061726","0.0-4.0-1.234","true"
"1048","ImagesDirect/VR102.5.png","188","test",".","image-keyboard-response","654","1063278","0.0-4.0-1.235","false"
"1768","ImagesTennis/TR97.5.png","190","test",",","image-keyboard-response","656","1065549","0.0-4.0-1.236","false"
"3953","ImagesTennis/TL97.5.png","188","test",".","image-keyboard-response","658","1070005","0.0-4.0-1.237","false"
"640","ImagesSoccer/VR100.png","190","test",".","image-keyboard-response","660","1071149","0.0-4.0-1.238","true"
"840","ImagesTennis/TR105.png","190","test",".","image-keyboard-response","662","1072493","0.0-4.0-1.239","true"
"569","ImagesTennis/TL105.png","188","test",",","image-keyboard-response","664","1073565","0.0-4.0-1.240","true"
"680","ImagesSoccer/VR102.5.png","190","test",".","image-keyboard-response","666","1074748","0.0-4.0-1.241","true"
"1033","ImagesDirect/VL97.5.png","188","test",".","image-keyboard-response","668","1076284","0.0-4.0-1.242","false"
"1529","ImagesDirect/VL95.png","190","test",".","image-keyboard-response","670","1078316","0.0-4.0-1.243","true"
"1617","ImagesSoccer/VR105.png","190","test",".","image-keyboard-response","672","1080436","0.0-4.0-1.244","true"
"656","ImagesDirect/VR92.5.png","188","test",",","image-keyboard-response","674","1081595","0.0-4.0-1.245","true"
"1040","ImagesSoccer/VR90.png","188","test",",","image-keyboard-response","676","1083139","0.0-4.0-1.246","true"
"1257","ImagesDirect/VL105.png","190","test",",","image-keyboard-response","678","1084899","0.0-4.0-1.247","false"
"784","ImagesDirect/VL110.png","188","test",",","image-keyboard-response","680","1086186","0.0-4.0-1.248","true"
"818","ImagesTennis/TL100.png","190","test",".","image-keyboard-response","682","1087507","0.0-4.0-1.249","true"
"2465","ImagesDirect/VL100.png","188","test",".","image-keyboard-response","684","1090475","0.0-4.0-1.250","false"
"1072","ImagesSoccer/VL107.5.png","190","test",",","image-keyboard-response","686","1092051","0.0-4.0-1.251","false"
"936","ImagesTennis/TR92.5.png","188","test",",","image-keyboard-response","688","1093490","0.0-4.0-1.252","true"
"1303","ImagesDirect/VL102.5.png","190","test",",","image-keyboard-response","690","1095298","0.0-4.0-1.253","false"
"9966","ImagesDirect/VR100.png","188","test",".","image-keyboard-response","692","1105769","0.0-4.0-1.254","false"
"848","ImagesDirect/VL107.5.png","188","test",",","image-keyboard-response","694","1107121","0.0-4.0-1.255","true"
"1265","ImagesDirect/VR95.png","188","test",",","image-keyboard-response","696","1108888","0.0-4.0-1.256","true"
"665","ImagesTennis/TR90.png","188","test",",","image-keyboard-response","698","1110056","0.0-4.0-1.257","true"
"744","ImagesTennis/TL107.5.png","188","test",",","image-keyboard-response","700","1111304","0.0-4.0-1.258","true"
"481","ImagesTennis/TL92.5.png","188","test",".","image-keyboard-response","702","1112288","0.0-4.0-1.259","false"
"904","ImagesDirect/VL92.5.png","188","test",".","image-keyboard-response","704","1113696","0.0-4.0-1.260","false"
"2255","ImagesSoccer/VL110.png","188","test",",","image-keyboard-response","706","1116455","0.0-4.0-1.261","true"
"1145","ImagesDirect/VR97.5.png","190","test",",","image-keyboard-response","708","1118103","0.0-4.0-1.262","false"
"2513","ImagesTennis/TL95.png","190","test",".","image-keyboard-response","710","1121119","0.0-4.0-1.263","true"
"1169","ImagesSoccer/VL105.png","188","test",",","image-keyboard-response","712","1122791","0.0-4.0-1.264","true"
"2104","ImagesSoccer/VL100.png","190","test",".","image-keyboard-response","714","1125398","0.0-4.0-1.265","true"
"1705","ImagesSoccer/VL90.png","190","test",".","image-keyboard-response","716","1127606","0.0-4.0-1.266","true"
"1737","ImagesSoccer/VR95.png","190","test",",","image-keyboard-response","718","1129847","0.0-4.0-1.267","false"
"1183","ImagesTennis/TL110.png","188","test",",","image-keyboard-response","720","1131534","0.0-4.0-1.268","true"
"1360","ImagesSoccer/VR97.5.png","188","test",",","image-keyboard-response","722","1133398","0.0-4.0-1.269","true"
