rt;stimulus;key_press;test_part;correct_response;trial_type;trial_index;time_elapsed;internal_node_id;correct
1811;ImagesCoins/10R92.5.png;188;test;,;image-keyboard-response;4;29681;0.0-3.0-1.0;true
1451;ImagesCoins/10R100.png;190;test;.;image-keyboard-response;6;31648;0.0-3.0-1.1;true
974;ImagesCoins/10R110.png;190;test;.;image-keyboard-response;8;33127;0.0-3.0-1.2;true
1409;ImagesCoins/10R102.5.png;190;test;.;image-keyboard-response;10;35041;0.0-3.0-1.3;true
1072;ImagesCoins/10R90.png;188;test;,;image-keyboard-response;12;36624;0.0-3.0-1.4;true
1141;ImagesCoins/10L105.png;188;test;,;image-keyboard-response;14;38280;0.0-3.0-1.5;true
1365;ImagesCoins/10L95.png;190;test;.;image-keyboard-response;16;40152;0.0-3.0-1.6;true
942;ImagesCoins/10L107.5.png;188;test;,;image-keyboard-response;18;41600;0.0-3.0-1.7;true
1886;ImagesCoins/10R95.png;190;test;,;image-keyboard-response;20;44000;0.0-3.0-1.8;false
857;ImagesCoins/10L110.png;188;test;,;image-keyboard-response;22;45361;0.0-3.0-1.9;true
1489;ImagesCoins/10L100.png;188;test;.;image-keyboard-response;24;47360;0.0-3.0-1.10;false
1417;ImagesCoins/10L97.5.png;190;test;.;image-keyboard-response;26;49296;0.0-3.0-1.11;true
2104;ImagesCoins/10R97.5.png;190;test;,;image-keyboard-response;28;51904;0.0-3.0-1.12;false
918;ImagesCoins/10R105.png;190;test;.;image-keyboard-response;30;53336;0.0-3.0-1.13;true
1592;ImagesCoins/10L102.5.png;188;test;,;image-keyboard-response;32;55448;0.0-3.0-1.14;true
1313;ImagesCoins/10L92.5.png;190;test;.;image-keyboard-response;34;57272;0.0-3.0-1.15;true
1028;ImagesCoins/10L90.png;190;test;.;image-keyboard-response;36;58808;0.0-3.0-1.16;true
1219;ImagesCoins/10R107.5.png;190;test;.;image-keyboard-response;38;60544;0.0-3.0-1.17;true
913;ImagesCoins/10R92.5.png;188;test;,;image-keyboard-response;40;61968;0.0-3.0-1.18;true
1226;ImagesCoins/10R102.5.png;190;test;.;image-keyboard-response;42;63704;0.0-3.0-1.19;true
948;ImagesCoins/10R110.png;190;test;.;image-keyboard-response;44;65160;0.0-3.0-1.20;true
1287;ImagesCoins/10L97.5.png;188;test;.;image-keyboard-response;46;66953;0.0-3.0-1.21;false
2551;ImagesCoins/10R97.5.png;190;test;,;image-keyboard-response;48;70016;0.0-3.0-1.22;false
1578;ImagesCoins/10R95.png;188;test;,;image-keyboard-response;50;72120;0.0-3.0-1.23;true
859;ImagesCoins/10L107.5.png;188;test;,;image-keyboard-response;52;73496;0.0-3.0-1.24;true
1256;ImagesCoins/10L102.5.png;188;test;,;image-keyboard-response;54;75264;0.0-3.0-1.25;true
1379;ImagesCoins/10L105.png;188;test;,;image-keyboard-response;56;77153;0.0-3.0-1.26;true
972;ImagesCoins/10L92.5.png;190;test;.;image-keyboard-response;58;78632;0.0-3.0-1.27;true
1220;ImagesCoins/10R105.png;190;test;.;image-keyboard-response;60;80368;0.0-3.0-1.28;true
2297;ImagesCoins/10R100.png;190;test;.;image-keyboard-response;62;83176;0.0-3.0-1.29;true
1154;ImagesCoins/10L110.png;188;test;,;image-keyboard-response;64;84840;0.0-3.0-1.30;true
1667;ImagesCoins/10L100.png;190;test;.;image-keyboard-response;66;87016;0.0-3.0-1.31;true
1177;ImagesCoins/10L95.png;190;test;.;image-keyboard-response;68;88705;0.0-3.0-1.32;true
1114;ImagesCoins/10R90.png;188;test;,;image-keyboard-response;70;90336;0.0-3.0-1.33;true
774;ImagesCoins/10R107.5.png;190;test;.;image-keyboard-response;72;91624;0.0-3.0-1.34;true
837;ImagesCoins/10L90.png;190;test;.;image-keyboard-response;74;92968;0.0-3.0-1.35;true
909;ImagesCoins/10R102.5.png;190;test;.;image-keyboard-response;76;94392;0.0-3.0-1.36;true
878;ImagesCoins/10L110.png;188;test;,;image-keyboard-response;78;95776;0.0-3.0-1.37;true
1442;ImagesCoins/10R105.png;190;test;.;image-keyboard-response;80;97728;0.0-3.0-1.38;true
1375;ImagesCoins/10L90.png;190;test;.;image-keyboard-response;82;99617;0.0-3.0-1.39;true
1790;ImagesCoins/10R97.5.png;190;test;,;image-keyboard-response;84;101920;0.0-3.0-1.40;false
2218;ImagesCoins/10L97.5.png;190;test;.;image-keyboard-response;86;104648;0.0-3.0-1.41;true
1931;ImagesCoins/10L105.png;188;test;,;image-keyboard-response;88;107089;0.0-3.0-1.42;true
2648;ImagesCoins/10R100.png;190;test;.;image-keyboard-response;90;110240;0.0-3.0-1.43;true
1033;ImagesCoins/10L92.5.png;190;test;.;image-keyboard-response;92;111784;0.0-3.0-1.44;true
1281;ImagesCoins/10R92.5.png;188;test;,;image-keyboard-response;94;113576;0.0-3.0-1.45;true
830;ImagesCoins/10L102.5.png;188;test;,;image-keyboard-response;96;114912;0.0-3.0-1.46;true
748;ImagesCoins/10R107.5.png;190;test;.;image-keyboard-response;98;116176;0.0-3.0-1.47;true
816;ImagesCoins/10L107.5.png;188;test;,;image-keyboard-response;100;117512;0.0-3.0-1.48;true
3518;ImagesCoins/10R95.png;188;test;,;image-keyboard-response;102;121536;0.0-3.0-1.49;true
1271;ImagesCoins/10R90.png;188;test;,;image-keyboard-response;104;123311;0.0-3.0-1.50;true
1114;ImagesCoins/10L95.png;190;test;.;image-keyboard-response;106;124935;0.0-3.0-1.51;true
1094;ImagesCoins/10L100.png;188;test;.;image-keyboard-response;108;126535;0.0-3.0-1.52;false
810;ImagesCoins/10R110.png;190;test;.;image-keyboard-response;110;127847;0.0-3.0-1.53;true
764;ImagesCoins/10R105.png;190;test;.;image-keyboard-response;112;129127;0.0-3.0-1.54;true
1473;ImagesCoins/10R97.5.png;190;test;,;image-keyboard-response;114;131103;0.0-3.0-1.55;false
2080;ImagesCoins/10R100.png;190;test;.;image-keyboard-response;116;133688;0.0-3.0-1.56;true
4000;ImagesCoins/10R95.png;188;test;,;image-keyboard-response;118;138199;0.0-3.0-1.57;true
1279;ImagesCoins/10R90.png;188;test;,;image-keyboard-response;120;139992;0.0-3.0-1.58;true
4104;ImagesCoins/10R92.5.png;190;test;,;image-keyboard-response;122;144608;0.0-3.0-1.59;false
742;ImagesCoins/10L105.png;188;test;,;image-keyboard-response;124;145856;0.0-3.0-1.60;true
1042;ImagesCoins/10L92.5.png;190;test;.;image-keyboard-response;126;147407;0.0-3.0-1.61;true
1941;ImagesCoins/10L97.5.png;190;test;.;image-keyboard-response;128;149863;0.0-3.0-1.62;true
2150;ImagesCoins/10L95.png;190;test;.;image-keyboard-response;130;152519;0.0-3.0-1.63;true
927;ImagesCoins/10R107.5.png;190;test;.;image-keyboard-response;132;153951;0.0-3.0-1.64;true
804;ImagesCoins/10R110.png;190;test;.;image-keyboard-response;134;155264;0.0-3.0-1.65;true
830;ImagesCoins/10L102.5.png;188;test;,;image-keyboard-response;136;156615;0.0-3.0-1.66;true
664;ImagesCoins/10L107.5.png;188;test;,;image-keyboard-response;138;157783;0.0-3.0-1.67;true
1324;ImagesCoins/10R102.5.png;190;test;.;image-keyboard-response;140;159615;0.0-3.0-1.68;true
1724;ImagesCoins/10L100.png;188;test;.;image-keyboard-response;142;161855;0.0-3.0-1.69;false
1790;ImagesCoins/10L90.png;190;test;.;image-keyboard-response;144;164151;0.0-3.0-1.70;true
785;ImagesCoins/10L110.png;188;test;,;image-keyboard-response;146;165440;0.0-3.0-1.71;true
1205;ImagesCoins/10L102.5.png;188;test;,;image-keyboard-response;148;167151;0.0-3.0-1.72;true
965;ImagesCoins/10R100.png;190;test;.;image-keyboard-response;150;168631;0.0-3.0-1.73;true
729;ImagesCoins/10L90.png;190;test;.;image-keyboard-response;152;169871;0.0-3.0-1.74;true
780;ImagesCoins/10L107.5.png;188;test;,;image-keyboard-response;154;171159;0.0-3.0-1.75;true
918;ImagesCoins/10L92.5.png;190;test;.;image-keyboard-response;156;172583;0.0-3.0-1.76;true
944;ImagesCoins/10R102.5.png;190;test;.;image-keyboard-response;158;174032;0.0-3.0-1.77;true
1279;ImagesCoins/10R97.5.png;190;test;,;image-keyboard-response;160;175823;0.0-3.0-1.78;false
733;ImagesCoins/10R105.png;190;test;.;image-keyboard-response;162;177071;0.0-3.0-1.79;true
1071;ImagesCoins/10L95.png;190;test;.;image-keyboard-response;164;178647;0.0-3.0-1.80;true
1599;ImagesCoins/10R95.png;188;test;,;image-keyboard-response;166;180751;0.0-3.0-1.81;true
856;ImagesCoins/10L100.png;188;test;.;image-keyboard-response;168;182112;0.0-3.0-1.82;false
2958;ImagesCoins/10L105.png;188;test;,;image-keyboard-response;170;185575;0.0-3.0-1.83;true
905;ImagesCoins/10R90.png;188;test;,;image-keyboard-response;172;186992;0.0-3.0-1.84;true
718;ImagesCoins/10R107.5.png;190;test;.;image-keyboard-response;174;188215;0.0-3.0-1.85;true
663;ImagesCoins/10R110.png;190;test;.;image-keyboard-response;176;189384;0.0-3.0-1.86;true
641;ImagesCoins/10L110.png;188;test;,;image-keyboard-response;178;190527;0.0-3.0-1.87;true
814;ImagesCoins/10L97.5.png;190;test;.;image-keyboard-response;180;191847;0.0-3.0-1.88;true
2528;ImagesCoins/10R92.5.png;188;test;,;image-keyboard-response;182;194880;0.0-3.0-1.89;true
2286;ImagesDirect/VR100.png;188;test;.;image-keyboard-response;184;197672;0.0-4.0-1.0;false
1732;ImagesSoccer/VL102.5.png;188;test;,;image-keyboard-response;186;199920;0.0-4.0-1.1;true
3806;ImagesSoccer/VR92.5.png;190;test;,;image-keyboard-response;188;204231;0.0-4.0-1.2;false
1728;ImagesDirect/VL100.png;190;test;.;image-keyboard-response;190;206463;0.0-4.0-1.3;true
1297;ImagesTennis/TL105.png;188;test;,;image-keyboard-response;192;208264;0.0-4.0-1.4;true
843;ImagesDirect/VR97.5.png;190;test;,;image-keyboard-response;194;209616;0.0-4.0-1.5;false
838;ImagesSoccer/VR107.5.png;190;test;.;image-keyboard-response;196;210968;0.0-4.0-1.6;true
1639;ImagesTennis/TR92.5.png;188;test;,;image-keyboard-response;198;213126;0.0-4.0-1.7;true
1162;ImagesTennis/TL107.5.png;188;test;,;image-keyboard-response;200;214791;0.0-4.0-1.8;true
834;ImagesSoccer/VR102.5.png;190;test;.;image-keyboard-response;202;216136;0.0-4.0-1.9;true
954;ImagesSoccer/VL95.png;188;test;.;image-keyboard-response;204;217600;0.0-4.0-1.10;false
1487;ImagesDirect/VL102.5.png;188;test;,;image-keyboard-response;206;219600;0.0-4.0-1.11;true
1067;ImagesTennis/TR110.png;190;test;.;image-keyboard-response;208;221183;0.0-4.0-1.12;true
2972;ImagesSoccer/VL105.png;188;test;,;image-keyboard-response;210;224671;0.0-4.0-1.13;true
1019;ImagesDirect/VL92.5.png;190;test;.;image-keyboard-response;212;226199;0.0-4.0-1.14;true
825;ImagesSoccer/VR110.png;190;test;.;image-keyboard-response;214;227527;0.0-4.0-1.15;true
1646;ImagesDirect/VR95.png;188;test;,;image-keyboard-response;216;229688;0.0-4.0-1.16;true
2913;ImagesSoccer/VL97.5.png;190;test;.;image-keyboard-response;218;233104;0.0-4.0-1.17;true
1325;ImagesTennis/TL90.png;190;test;.;image-keyboard-response;220;234935;0.0-4.0-1.18;true
2741;ImagesTennis/TR95.png;190;test;,;image-keyboard-response;222;238183;0.0-4.0-1.19;false
2374;ImagesSoccer/VL90.png;190;test;.;image-keyboard-response;224;241064;0.0-4.0-1.20;true
1776;ImagesTennis/TR97.5.png;188;test;,;image-keyboard-response;226;243352;0.0-4.0-1.21;true
1876;ImagesTennis/TL92.5.png;190;test;.;image-keyboard-response;228;245735;0.0-4.0-1.22;true
1425;ImagesDirect/VL105.png;188;test;,;image-keyboard-response;230;247679;0.0-4.0-1.23;true
1484;ImagesTennis/TR105.png;190;test;.;image-keyboard-response;232;249671;0.0-4.0-1.24;true
1122;ImagesDirect/VL107.5.png;188;test;,;image-keyboard-response;234;251296;0.0-4.0-1.25;true
987;ImagesDirect/VL90.png;190;test;.;image-keyboard-response;236;252791;0.0-4.0-1.26;true
906;ImagesTennis/TL110.png;188;test;,;image-keyboard-response;238;254199;0.0-4.0-1.27;true
2304;ImagesSoccer/VL110.png;188;test;,;image-keyboard-response;240;257007;0.0-4.0-1.28;true
779;ImagesDirect/VR110.png;190;test;.;image-keyboard-response;242;258295;0.0-4.0-1.29;true
1082;ImagesSoccer/VR90.png;188;test;,;image-keyboard-response;244;259887;0.0-4.0-1.30;true
799;ImagesDirect/VR105.png;190;test;.;image-keyboard-response;246;261191;0.0-4.0-1.31;true
1721;ImagesTennis/TL95.png;190;test;.;image-keyboard-response;248;263416;0.0-4.0-1.32;true
1555;ImagesSoccer/VR95.png;188;test;,;image-keyboard-response;250;265487;0.0-4.0-1.33;true
1560;ImagesSoccer/VR97.5.png;188;test;,;image-keyboard-response;252;267559;0.0-4.0-1.34;true
1635;ImagesTennis/TL100.png;188;test;.;image-keyboard-response;254;269703;0.0-4.0-1.35;false
1421;ImagesSoccer/VL100.png;188;test;.;image-keyboard-response;256;271639;0.0-4.0-1.36;false
889;ImagesDirect/VL95.png;190;test;.;image-keyboard-response;258;273031;0.0-4.0-1.37;true
1081;ImagesTennis/TR100.png;190;test;.;image-keyboard-response;260;274616;0.0-4.0-1.38;true
739;ImagesTennis/TR107.5.png;190;test;.;image-keyboard-response;262;275864;0.0-4.0-1.39;true
711;ImagesSoccer/VL107.5.png;188;test;,;image-keyboard-response;264;277087;0.0-4.0-1.40;true
876;ImagesTennis/TR90.png;190;test;,;image-keyboard-response;266;278471;0.0-4.0-1.41;false
778;ImagesDirect/VR107.5.png;190;test;.;image-keyboard-response;268;279760;0.0-4.0-1.42;true
2411;ImagesSoccer/VL92.5.png;188;test;.;image-keyboard-response;270;282679;0.0-4.0-1.43;false
1677;ImagesDirect/VR92.5.png;188;test;,;image-keyboard-response;272;284865;0.0-4.0-1.44;true
1057;ImagesTennis/TL97.5.png;190;test;.;image-keyboard-response;274;286431;0.0-4.0-1.45;true
892;ImagesTennis/TR102.5.png;190;test;.;image-keyboard-response;276;287832;0.0-4.0-1.46;true
991;ImagesDirect/VR102.5.png;190;test;.;image-keyboard-response;278;289336;0.0-4.0-1.47;true
1184;ImagesDirect/VL110.png;188;test;,;image-keyboard-response;280;291024;0.0-4.0-1.48;true
2775;ImagesDirect/VL97.5.png;190;test;.;image-keyboard-response;282;294304;0.0-4.0-1.49;true
1552;ImagesDirect/VR90.png;188;test;,;image-keyboard-response;284;296360;0.0-4.0-1.50;true
2601;ImagesSoccer/VR105.png;190;test;.;image-keyboard-response;286;299471;0.0-4.0-1.51;true
1097;ImagesSoccer/VR100.png;190;test;.;image-keyboard-response;288;301071;0.0-4.0-1.52;true
837;ImagesTennis/TL102.5.png;188;test;,;image-keyboard-response;290;302415;0.0-4.0-1.53;true
593;ImagesSoccer/VR102.5.png;190;test;.;image-keyboard-response;292;303512;0.0-4.0-1.54;true
1232;ImagesTennis/TL102.5.png;190;test;,;image-keyboard-response;294;305248;0.0-4.0-1.55;false
1106;ImagesTennis/TR90.png;188;test;,;image-keyboard-response;296;306865;0.0-4.0-1.56;true
1019;ImagesSoccer/VR100.png;190;test;.;image-keyboard-response;298;308392;0.0-4.0-1.57;true
1673;ImagesTennis/TL105.png;190;test;,;image-keyboard-response;300;310576;0.0-4.0-1.58;false
898;ImagesSoccer/VR107.5.png;190;test;.;image-keyboard-response;302;311984;0.0-4.0-1.59;true
2041;ImagesDirect/VR95.png;190;test;,;image-keyboard-response;304;314536;0.0-4.0-1.60;false
1177;ImagesDirect/VL92.5.png;190;test;.;image-keyboard-response;306;316216;0.0-4.0-1.61;true
920;ImagesDirect/VL105.png;188;test;,;image-keyboard-response;308;317640;0.0-4.0-1.62;true
904;ImagesSoccer/VR97.5.png;190;test;,;image-keyboard-response;310;319064;0.0-4.0-1.63;false
1186;ImagesSoccer/VL107.5.png;188;test;,;image-keyboard-response;312;320760;0.0-4.0-1.64;true
851;ImagesTennis/TR110.png;190;test;.;image-keyboard-response;314;322128;0.0-4.0-1.65;true
943;ImagesDirect/VR102.5.png;190;test;.;image-keyboard-response;316;323592;0.0-4.0-1.66;true
919;ImagesSoccer/VL105.png;188;test;,;image-keyboard-response;318;325016;0.0-4.0-1.67;true
850;ImagesTennis/TR102.5.png;190;test;.;image-keyboard-response;320;326384;0.0-4.0-1.68;true
879;ImagesTennis/TL95.png;190;test;.;image-keyboard-response;322;327776;0.0-4.0-1.69;true
2154;ImagesDirect/VL102.5.png;190;test;,;image-keyboard-response;324;330447;0.0-4.0-1.70;false
1737;ImagesSoccer/VL100.png;188;test;.;image-keyboard-response;326;332696;0.0-4.0-1.71;false
2346;ImagesTennis/TL97.5.png;188;test;.;image-keyboard-response;328;335544;0.0-4.0-1.72;false
725;ImagesTennis/TR97.5.png;190;test;,;image-keyboard-response;330;336776;0.0-4.0-1.73;false
1079;ImagesDirect/VL90.png;190;test;.;image-keyboard-response;332;338369;0.0-4.0-1.74;true
740;ImagesDirect/VR105.png;190;test;.;image-keyboard-response;334;339616;0.0-4.0-1.75;true
905;ImagesDirect/VR90.png;188;test;,;image-keyboard-response;336;341024;0.0-4.0-1.76;true
624;ImagesDirect/VR100.png;190;test;.;image-keyboard-response;338;342160;0.0-4.0-1.77;true
1129;ImagesDirect/VR92.5.png;188;test;,;image-keyboard-response;340;343800;0.0-4.0-1.78;true
661;ImagesTennis/TR107.5.png;190;test;.;image-keyboard-response;342;344976;0.0-4.0-1.79;true
790;ImagesSoccer/VR105.png;190;test;.;image-keyboard-response;344;346280;0.0-4.0-1.80;true
1416;ImagesTennis/TL100.png;190;test;.;image-keyboard-response;346;348200;0.0-4.0-1.81;true
1918;ImagesTennis/TR95.png;190;test;,;image-keyboard-response;348;350624;0.0-4.0-1.82;false
1585;ImagesSoccer/VL95.png;190;test;.;image-keyboard-response;350;352720;0.0-4.0-1.83;true
901;ImagesTennis/TL110.png;188;test;,;image-keyboard-response;352;354128;0.0-4.0-1.84;true
726;ImagesSoccer/VR110.png;190;test;.;image-keyboard-response;354;355360;0.0-4.0-1.85;true
666;ImagesDirect/VL107.5.png;188;test;,;image-keyboard-response;356;356536;0.0-4.0-1.86;true
1725;ImagesSoccer/VR95.png;190;test;,;image-keyboard-response;358;358775;0.0-4.0-1.87;false
1023;ImagesSoccer/VL102.5.png;188;test;,;image-keyboard-response;360;360304;0.0-4.0-1.88;true
1571;ImagesTennis/TL92.5.png;190;test;.;image-keyboard-response;362;362384;0.0-4.0-1.89;true
2271;ImagesTennis/TR92.5.png;190;test;,;image-keyboard-response;364;365160;0.0-4.0-1.90;false
1520;ImagesDirect/VL95.png;190;test;.;image-keyboard-response;366;367192;0.0-4.0-1.91;true
1038;ImagesDirect/VR110.png;190;test;.;image-keyboard-response;368;368736;0.0-4.0-1.92;true
2882;ImagesDirect/VR97.5.png;190;test;,;image-keyboard-response;370;372120;0.0-4.0-1.93;false
1091;ImagesTennis/TL90.png;190;test;.;image-keyboard-response;372;373720;0.0-4.0-1.94;true
1392;ImagesTennis/TR100.png;190;test;.;image-keyboard-response;374;375624;0.0-4.0-1.95;true
1436;ImagesDirect/VR107.5.png;190;test;.;image-keyboard-response;376;377568;0.0-4.0-1.96;true
790;ImagesSoccer/VL110.png;188;test;,;image-keyboard-response;378;378864;0.0-4.0-1.97;true
1042;ImagesDirect/VL110.png;188;test;,;image-keyboard-response;380;380415;0.0-4.0-1.98;true
748;ImagesTennis/TR105.png;190;test;.;image-keyboard-response;382;381672;0.0-4.0-1.99;true
2252;ImagesSoccer/VR92.5.png;190;test;,;image-keyboard-response;384;384440;0.0-4.0-1.100;false
1352;ImagesDirect/VL97.5.png;190;test;.;image-keyboard-response;386;386296;0.0-4.0-1.101;true
1307;ImagesSoccer/VL90.png;190;test;.;image-keyboard-response;388;388112;0.0-4.0-1.102;true
1867;ImagesSoccer/VR90.png;190;test;,;image-keyboard-response;390;390496;0.0-4.0-1.103;false
1634;ImagesDirect/VL100.png;190;test;.;image-keyboard-response;392;392640;0.0-4.0-1.104;true
1308;ImagesTennis/TL107.5.png;188;test;,;image-keyboard-response;394;394456;0.0-4.0-1.105;true
1800;ImagesSoccer/VL97.5.png;190;test;.;image-keyboard-response;396;396760;0.0-4.0-1.106;true
932;ImagesSoccer/VL92.5.png;190;test;.;image-keyboard-response;398;398208;0.0-4.0-1.107;true
1431;ImagesSoccer/VR92.5.png;190;test;,;image-keyboard-response;400;400144;0.0-4.0-1.108;false
793;ImagesDirect/VL92.5.png;190;test;.;image-keyboard-response;402;401456;0.0-4.0-1.109;true
705;ImagesDirect/VL107.5.png;188;test;,;image-keyboard-response;404;402672;0.0-4.0-1.110;true
1075;ImagesTennis/TR105.png;190;test;.;image-keyboard-response;406;404256;0.0-4.0-1.111;true
1547;ImagesSoccer/VL92.5.png;190;test;.;image-keyboard-response;408;406320;0.0-4.0-1.112;true
930;ImagesSoccer/VR102.5.png;190;test;.;image-keyboard-response;410;407767;0.0-4.0-1.113;true
798;ImagesTennis/TR102.5.png;190;test;.;image-keyboard-response;412;409072;0.0-4.0-1.114;true
625;ImagesDirect/VR107.5.png;190;test;.;image-keyboard-response;414;410216;0.0-4.0-1.115;true
929;ImagesTennis/TR107.5.png;190;test;.;image-keyboard-response;416;411664;0.0-4.0-1.116;true
1230;ImagesSoccer/VL90.png;190;test;.;image-keyboard-response;418;413400;0.0-4.0-1.117;true
961;ImagesTennis/TL90.png;190;test;.;image-keyboard-response;420;414880;0.0-4.0-1.118;true
944;ImagesTennis/TL107.5.png;188;test;,;image-keyboard-response;422;416335;0.0-4.0-1.119;true
684;ImagesDirect/VR95.png;190;test;,;image-keyboard-response;424;417536;0.0-4.0-1.120;false
704;ImagesTennis/TR110.png;190;test;.;image-keyboard-response;426;418760;0.0-4.0-1.121;true
1286;ImagesTennis/TR95.png;188;test;,;image-keyboard-response;428;420560;0.0-4.0-1.122;true
970;ImagesSoccer/VR97.5.png;190;test;,;image-keyboard-response;430;422048;0.0-4.0-1.123;false
5111;ImagesDirect/VR100.png;190;test;.;image-keyboard-response;432;427672;0.0-4.0-1.124;true
1426;ImagesSoccer/VL95.png;190;test;.;image-keyboard-response;434;429607;0.0-4.0-1.125;true
944;ImagesSoccer/VR90.png;188;test;,;image-keyboard-response;436;431055;0.0-4.0-1.126;true
1330;ImagesSoccer/VL105.png;188;test;,;image-keyboard-response;438;432903;0.0-4.0-1.127;true
1360;ImagesTennis/TL105.png;188;test;,;image-keyboard-response;440;434783;0.0-4.0-1.128;true
877;ImagesDirect/VL110.png;188;test;,;image-keyboard-response;442;436167;0.0-4.0-1.129;true
1935;ImagesDirect/VL97.5.png;190;test;.;image-keyboard-response;444;438616;0.0-4.0-1.130;true
1197;ImagesTennis/TL110.png;188;test;,;image-keyboard-response;446;440319;0.0-4.0-1.131;true
705;ImagesSoccer/VR107.5.png;190;test;.;image-keyboard-response;448;441535;0.0-4.0-1.132;true
793;ImagesSoccer/VR100.png;190;test;.;image-keyboard-response;450;442840;0.0-4.0-1.133;true
3292;ImagesSoccer/VR95.png;190;test;,;image-keyboard-response;452;446639;0.0-4.0-1.134;false
1117;ImagesDirect/VR90.png;188;test;,;image-keyboard-response;454;448271;0.0-4.0-1.135;true
782;ImagesSoccer/VL102.5.png;188;test;,;image-keyboard-response;456;449560;0.0-4.0-1.136;true
679;ImagesDirect/VR110.png;190;test;.;image-keyboard-response;458;450743;0.0-4.0-1.137;true
1459;ImagesDirect/VL100.png;190;test;.;image-keyboard-response;460;452719;0.0-4.0-1.138;true
1529;ImagesDirect/VR97.5.png;188;test;,;image-keyboard-response;462;454760;0.0-4.0-1.139;true
871;ImagesTennis/TL102.5.png;190;test;,;image-keyboard-response;464;456135;0.0-4.0-1.140;false
1072;ImagesDirect/VL105.png;188;test;,;image-keyboard-response;466;457719;0.0-4.0-1.141;true
773;ImagesTennis/TL92.5.png;190;test;.;image-keyboard-response;468;459000;0.0-4.0-1.142;true
1344;ImagesSoccer/VL97.5.png;188;test;.;image-keyboard-response;470;460848;0.0-4.0-1.143;false
678;ImagesSoccer/VR105.png;190;test;.;image-keyboard-response;472;462039;0.0-4.0-1.144;true
594;ImagesDirect/VR102.5.png;190;test;.;image-keyboard-response;474;463143;0.0-4.0-1.145;true
627;ImagesDirect/VR105.png;190;test;.;image-keyboard-response;476;464279;0.0-4.0-1.146;true
1231;ImagesDirect/VR92.5.png;188;test;,;image-keyboard-response;478;466023;0.0-4.0-1.147;true
1077;ImagesTennis/TR92.5.png;188;test;,;image-keyboard-response;480;467607;0.0-4.0-1.148;true
635;ImagesSoccer/VR110.png;190;test;.;image-keyboard-response;482;468759;0.0-4.0-1.149;true
1971;ImagesDirect/VL102.5.png;188;test;,;image-keyboard-response;484;471248;0.0-4.0-1.150;true
2739;ImagesSoccer/VL100.png;190;test;.;image-keyboard-response;486;474496;0.0-4.0-1.151;true
631;ImagesTennis/TR100.png;190;test;.;image-keyboard-response;488;475631;0.0-4.0-1.152;true
887;ImagesTennis/TR97.5.png;190;test;,;image-keyboard-response;490;477031;0.0-4.0-1.153;false
829;ImagesTennis/TR90.png;190;test;,;image-keyboard-response;492;478375;0.0-4.0-1.154;false
839;ImagesDirect/VL90.png;190;test;.;image-keyboard-response;494;479719;0.0-4.0-1.155;true
914;ImagesTennis/TL95.png;190;test;.;image-keyboard-response;496;481135;0.0-4.0-1.156;true
801;ImagesSoccer/VL110.png;190;test;,;image-keyboard-response;498;482440;0.0-4.0-1.157;false
1935;ImagesTennis/TL97.5.png;190;test;.;image-keyboard-response;500;484880;0.0-4.0-1.158;true
905;ImagesTennis/TL100.png;190;test;.;image-keyboard-response;502;486296;0.0-4.0-1.159;true
897;ImagesSoccer/VL107.5.png;188;test;,;image-keyboard-response;504;487703;0.0-4.0-1.160;true
678;ImagesDirect/VL95.png;190;test;.;image-keyboard-response;506;488895;0.0-4.0-1.161;true
945;ImagesTennis/TL95.png;190;test;.;image-keyboard-response;508;490351;0.0-4.0-1.162;true
3748;ImagesDirect/VL105.png;188;test;,;image-keyboard-response;510;494608;0.0-4.0-1.163;true
695;ImagesTennis/TL90.png;190;test;.;image-keyboard-response;512;495808;0.0-4.0-1.164;true
799;ImagesDirect/VR107.5.png;190;test;.;image-keyboard-response;514;497119;0.0-4.0-1.165;true
849;ImagesDirect/VR95.png;188;test;,;image-keyboard-response;516;498480;0.0-4.0-1.166;true
1158;ImagesTennis/TR97.5.png;188;test;,;image-keyboard-response;518;500152;0.0-4.0-1.167;true
968;ImagesTennis/TR107.5.png;190;test;.;image-keyboard-response;520;501632;0.0-4.0-1.168;true
706;ImagesTennis/TR95.png;188;test;,;image-keyboard-response;522;502855;0.0-4.0-1.169;true
1054;ImagesDirect/VR90.png;188;test;,;image-keyboard-response;524;504416;0.0-4.0-1.170;true
1911;ImagesSoccer/VR95.png;190;test;,;image-keyboard-response;526;506832;0.0-4.0-1.171;false
774;ImagesDirect/VL102.5.png;188;test;,;image-keyboard-response;528;508111;0.0-4.0-1.172;true
1391;ImagesTennis/TL102.5.png;188;test;,;image-keyboard-response;530;510008;0.0-4.0-1.173;true
2280;ImagesSoccer/VL95.png;190;test;.;image-keyboard-response;532;512799;0.0-4.0-1.174;true
1330;ImagesSoccer/VL92.5.png;188;test;.;image-keyboard-response;534;514639;0.0-4.0-1.175;false
952;ImagesSoccer/VR105.png;190;test;.;image-keyboard-response;536;516096;0.0-4.0-1.176;true
960;ImagesSoccer/VR92.5.png;188;test;,;image-keyboard-response;538;517568;0.0-4.0-1.177;true
823;ImagesTennis/TR105.png;190;test;.;image-keyboard-response;540;518903;0.0-4.0-1.178;true
741;ImagesTennis/TR90.png;188;test;,;image-keyboard-response;542;520152;0.0-4.0-1.179;true
679;ImagesDirect/VR105.png;190;test;.;image-keyboard-response;544;521344;0.0-4.0-1.180;true
778;ImagesTennis/TL97.5.png;188;test;.;image-keyboard-response;546;522632;0.0-4.0-1.181;false
1585;ImagesSoccer/VL90.png;188;test;.;image-keyboard-response;548;524720;0.0-4.0-1.182;false
1712;ImagesSoccer/VR107.5.png;190;test;.;image-keyboard-response;550;526936;0.0-4.0-1.183;true
708;ImagesDirect/VL90.png;190;test;.;image-keyboard-response;552;528152;0.0-4.0-1.184;true
1105;ImagesDirect/VR97.5.png;188;test;,;image-keyboard-response;554;529767;0.0-4.0-1.185;true
1538;ImagesDirect/VL92.5.png;190;test;.;image-keyboard-response;556;531807;0.0-4.0-1.186;true
1222;ImagesTennis/TL100.png;190;test;.;image-keyboard-response;558;533535;0.0-4.0-1.187;true
2329;ImagesDirect/VL95.png;190;test;.;image-keyboard-response;560;536368;0.0-4.0-1.188;true
687;ImagesSoccer/VL110.png;188;test;,;image-keyboard-response;562;537560;0.0-4.0-1.189;true
2286;ImagesTennis/TL107.5.png;188;test;,;image-keyboard-response;564;540360;0.0-4.0-1.190;true
1393;ImagesTennis/TL105.png;188;test;,;image-keyboard-response;566;542263;0.0-4.0-1.191;true
1255;ImagesSoccer/VL102.5.png;188;test;,;image-keyboard-response;568;544023;0.0-4.0-1.192;true
1212;ImagesTennis/TR92.5.png;188;test;,;image-keyboard-response;570;545743;0.0-4.0-1.193;true
1289;ImagesSoccer/VL107.5.png;188;test;,;image-keyboard-response;572;547535;0.0-4.0-1.194;true
855;ImagesDirect/VL97.5.png;190;test;.;image-keyboard-response;574;548895;0.0-4.0-1.195;true
1358;ImagesSoccer/VR90.png;188;test;,;image-keyboard-response;576;550760;0.0-4.0-1.196;true
1541;ImagesDirect/VR92.5.png;188;test;,;image-keyboard-response;578;552807;0.0-4.0-1.197;true
823;ImagesDirect/VL110.png;188;test;,;image-keyboard-response;580;554143;0.0-4.0-1.198;true
1744;ImagesSoccer/VR97.5.png;190;test;,;image-keyboard-response;582;556399;0.0-4.0-1.199;false
1929;ImagesDirect/VR100.png;190;test;.;image-keyboard-response;584;558832;0.0-4.0-1.200;true
1344;ImagesDirect/VL107.5.png;188;test;,;image-keyboard-response;586;560679;0.0-4.0-1.201;true
1674;ImagesTennis/TR102.5.png;190;test;.;image-keyboard-response;588;562872;0.0-4.0-1.202;true
839;ImagesDirect/VR110.png;190;test;.;image-keyboard-response;590;564216;0.0-4.0-1.203;true
1080;ImagesSoccer/VR102.5.png;190;test;.;image-keyboard-response;592;565800;0.0-4.0-1.204;true
1185;ImagesTennis/TL92.5.png;188;test;.;image-keyboard-response;594;567487;0.0-4.0-1.205;false
1831;ImagesSoccer/VL97.5.png;190;test;.;image-keyboard-response;596;569824;0.0-4.0-1.206;true
632;ImagesSoccer/VL105.png;188;test;,;image-keyboard-response;598;570960;0.0-4.0-1.207;true
1077;ImagesSoccer/VL100.png;190;test;.;image-keyboard-response;600;572551;0.0-4.0-1.208;true
706;ImagesTennis/TR100.png;190;test;.;image-keyboard-response;602;573768;0.0-4.0-1.209;true
793;ImagesTennis/TL110.png;188;test;,;image-keyboard-response;604;575063;0.0-4.0-1.210;true
1168;ImagesSoccer/VR100.png;190;test;.;image-keyboard-response;606;576743;0.0-4.0-1.211;true
592;ImagesTennis/TR110.png;190;test;.;image-keyboard-response;608;577839;0.0-4.0-1.212;true
683;ImagesSoccer/VR110.png;190;test;.;image-keyboard-response;610;579039;0.0-4.0-1.213;true
659;ImagesDirect/VL100.png;188;test;.;image-keyboard-response;612;580207;0.0-4.0-1.214;false
1055;ImagesDirect/VR102.5.png;190;test;.;image-keyboard-response;614;581767;0.0-4.0-1.215;true
1035;ImagesSoccer/VL105.png;188;test;,;image-keyboard-response;616;583319;0.0-4.0-1.216;true
1693;ImagesSoccer/VL95.png;190;test;.;image-keyboard-response;618;585520;0.0-4.0-1.217;true
983;ImagesDirect/VR92.5.png;188;test;,;image-keyboard-response;620;587016;0.0-4.0-1.218;true
711;ImagesDirect/VR105.png;190;test;.;image-keyboard-response;622;588239;0.0-4.0-1.219;true
1323;ImagesDirect/VR100.png;190;test;.;image-keyboard-response;624;590071;0.0-4.0-1.220;true
923;ImagesDirect/VR97.5.png;188;test;,;image-keyboard-response;626;591503;0.0-4.0-1.221;true
704;ImagesDirect/VL105.png;188;test;,;image-keyboard-response;628;592728;0.0-4.0-1.222;true
1795;ImagesTennis/TR100.png;188;test;.;image-keyboard-response;630;595031;0.0-4.0-1.223;false
1481;ImagesSoccer/VL100.png;188;test;.;image-keyboard-response;632;597032;0.0-4.0-1.224;false
1038;ImagesDirect/VL92.5.png;190;test;.;image-keyboard-response;634;598576;0.0-4.0-1.225;true
1244;ImagesSoccer/VL102.5.png;188;test;,;image-keyboard-response;636;600327;0.0-4.0-1.226;true
742;ImagesSoccer/VR107.5.png;190;test;.;image-keyboard-response;638;601575;0.0-4.0-1.227;true
648;ImagesSoccer/VR92.5.png;188;test;,;image-keyboard-response;640;602735;0.0-4.0-1.228;true
1019;ImagesSoccer/VR97.5.png;190;test;,;image-keyboard-response;642;604264;0.0-4.0-1.229;false
635;ImagesDirect/VR110.png;190;test;.;image-keyboard-response;644;605407;0.0-4.0-1.230;true
3364;ImagesTennis/TR97.5.png;190;test;,;image-keyboard-response;646;609288;0.0-4.0-1.231;false
3068;ImagesDirect/VL95.png;190;test;.;image-keyboard-response;648;612872;0.0-4.0-1.232;true
1120;ImagesDirect/VR90.png;188;test;,;image-keyboard-response;650;614504;0.0-4.0-1.233;true
702;ImagesTennis/TL107.5.png;188;test;,;image-keyboard-response;652;615712;0.0-4.0-1.234;true
885;ImagesDirect/VL110.png;188;test;,;image-keyboard-response;654;617104;0.0-4.0-1.235;true
798;ImagesTennis/TR105.png;190;test;.;image-keyboard-response;656;618408;0.0-4.0-1.236;true
708;ImagesTennis/TL105.png;188;test;,;image-keyboard-response;658;619624;0.0-4.0-1.237;true
733;ImagesTennis/TR110.png;190;test;.;image-keyboard-response;660;620872;0.0-4.0-1.238;true
1103;ImagesTennis/TL100.png;190;test;.;image-keyboard-response;662;622487;0.0-4.0-1.239;true
616;ImagesSoccer/VL107.5.png;188;test;,;image-keyboard-response;664;623615;0.0-4.0-1.240;true
715;ImagesTennis/TL97.5.png;190;test;.;image-keyboard-response;666;624848;0.0-4.0-1.241;true
831;ImagesSoccer/VL90.png;190;test;.;image-keyboard-response;668;626184;0.0-4.0-1.242;true
1018;ImagesSoccer/VR110.png;190;test;.;image-keyboard-response;670;627711;0.0-4.0-1.243;true
923;ImagesTennis/TR107.5.png;190;test;.;image-keyboard-response;672;629151;0.0-4.0-1.244;true
688;ImagesDirect/VR107.5.png;190;test;.;image-keyboard-response;674;630352;0.0-4.0-1.245;true
688;ImagesTennis/TR92.5.png;188;test;,;image-keyboard-response;676;631543;0.0-4.0-1.246;true
1234;ImagesDirect/VR102.5.png;190;test;.;image-keyboard-response;678;633287;0.0-4.0-1.247;true
1079;ImagesDirect/VL100.png;190;test;.;image-keyboard-response;680;634872;0.0-4.0-1.248;true
1664;ImagesDirect/VL97.5.png;190;test;.;image-keyboard-response;682;637040;0.0-4.0-1.249;true
1870;ImagesSoccer/VL92.5.png;190;test;.;image-keyboard-response;684;639432;0.0-4.0-1.250;true
655;ImagesTennis/TL90.png;190;test;.;image-keyboard-response;686;640600;0.0-4.0-1.251;true
621;ImagesTennis/TL95.png;190;test;.;image-keyboard-response;688;641728;0.0-4.0-1.252;true
657;ImagesTennis/TL110.png;188;test;,;image-keyboard-response;690;642904;0.0-4.0-1.253;true
601;ImagesTennis/TL102.5.png;190;test;,;image-keyboard-response;692;644016;0.0-4.0-1.254;false
970;ImagesSoccer/VL97.5.png;190;test;.;image-keyboard-response;694;645496;0.0-4.0-1.255;true
1471;ImagesSoccer/VR95.png;190;test;,;image-keyboard-response;696;647479;0.0-4.0-1.256;false
875;ImagesDirect/VL90.png;190;test;.;image-keyboard-response;698;648863;0.0-4.0-1.257;true
640;ImagesSoccer/VR105.png;190;test;.;image-keyboard-response;700;650015;0.0-4.0-1.258;true
1297;ImagesSoccer/VR90.png;188;test;,;image-keyboard-response;702;651832;0.0-4.0-1.259;true
1134;ImagesTennis/TR90.png;188;test;,;image-keyboard-response;704;653472;0.0-4.0-1.260;true
745;ImagesSoccer/VL110.png;188;test;,;image-keyboard-response;706;654736;0.0-4.0-1.261;true
609;ImagesDirect/VL107.5.png;188;test;,;image-keyboard-response;708;655848;0.0-4.0-1.262;true
649;ImagesTennis/TR102.5.png;190;test;.;image-keyboard-response;710;657000;0.0-4.0-1.263;true
609;ImagesTennis/TL92.5.png;190;test;.;image-keyboard-response;712;658120;0.0-4.0-1.264;true
850;ImagesDirect/VR95.png;190;test;,;image-keyboard-response;714;659488;0.0-4.0-1.265;false
660;ImagesTennis/TR95.png;188;test;,;image-keyboard-response;716;660655;0.0-4.0-1.266;true
638;ImagesSoccer/VR102.5.png;190;test;.;image-keyboard-response;718;661800;0.0-4.0-1.267;true
701;ImagesDirect/VL102.5.png;188;test;,;image-keyboard-response;720;663008;0.0-4.0-1.268;true
736;ImagesSoccer/VR100.png;190;test;.;image-keyboard-response;722;664256;0.0-4.0-1.269;true
