"rt","stimulus","key_press","test_part","correct_response","trial_type","trial_index","time_elapsed","internal_node_id","correct"
"2016","ImagesCoins/10R102.5.png","190","test",".","image-keyboard-response","4","25642","0.0-3.0-1.0","true"
"978","ImagesCoins/10R110.png","190","test",".","image-keyboard-response","6","27133","0.0-3.0-1.1","true"
"1736","ImagesCoins/10R100.png","190","test",".","image-keyboard-response","8","29376","0.0-3.0-1.2","true"
"1390","ImagesCoins/10L105.png","188","test",",","image-keyboard-response","10","31270","0.0-3.0-1.3","true"
"1936","ImagesCoins/10L97.5.png","188","test",".","image-keyboard-response","12","33711","0.0-3.0-1.4","false"
"1106","ImagesCoins/10L110.png","188","test",",","image-keyboard-response","14","35322","0.0-3.0-1.5","true"
"707","ImagesCoins/10L92.5.png","190","test",".","image-keyboard-response","16","36533","0.0-3.0-1.6","true"
"890","ImagesCoins/10R107.5.png","190","test",".","image-keyboard-response","18","37929","0.0-3.0-1.7","true"
"1895","ImagesCoins/10L102.5.png","188","test",",","image-keyboard-response","20","40328","0.0-3.0-1.8","true"
"1177","ImagesCoins/10R90.png","188","test",",","image-keyboard-response","22","42010","0.0-3.0-1.9","true"
"793","ImagesCoins/10L107.5.png","188","test",",","image-keyboard-response","24","43310","0.0-3.0-1.10","true"
"1986","ImagesCoins/10R95.png","190","test",",","image-keyboard-response","26","45809","0.0-3.0-1.11","false"
"1342","ImagesCoins/10R92.5.png","188","test",",","image-keyboard-response","28","47654","0.0-3.0-1.12","true"
"738","ImagesCoins/10R97.5.png","190","test",",","image-keyboard-response","30","48909","0.0-3.0-1.13","false"
"928","ImagesCoins/10L100.png","188","test",".","image-keyboard-response","32","50341","0.0-3.0-1.14","false"
"561","ImagesCoins/10R105.png","190","test",".","image-keyboard-response","34","51406","0.0-3.0-1.15","true"
"755","ImagesCoins/10L90.png","190","test",".","image-keyboard-response","36","52681","0.0-3.0-1.16","true"
"737","ImagesCoins/10L95.png","190","test",".","image-keyboard-response","38","53921","0.0-3.0-1.17","true"
"691","ImagesCoins/10R107.5.png","190","test",".","image-keyboard-response","40","55125","0.0-3.0-1.18","true"
"696","ImagesCoins/10R102.5.png","190","test",".","image-keyboard-response","42","56325","0.0-3.0-1.19","true"
"666","ImagesCoins/10L105.png","188","test",",","image-keyboard-response","44","57503","0.0-3.0-1.20","true"
"912","ImagesCoins/10R92.5.png","188","test",",","image-keyboard-response","46","58924","0.0-3.0-1.21","true"
"534","ImagesCoins/10R100.png","190","test",".","image-keyboard-response","48","59963","0.0-3.0-1.22","true"
"944","ImagesCoins/10L97.5.png","190","test",".","image-keyboard-response","50","61412","0.0-3.0-1.23","true"
"820","ImagesCoins/10R97.5.png","190","test",",","image-keyboard-response","52","62748","0.0-3.0-1.24","false"
"771","ImagesCoins/10L100.png","190","test",".","image-keyboard-response","54","64032","0.0-3.0-1.25","true"
"627","ImagesCoins/10L110.png","188","test",",","image-keyboard-response","56","65165","0.0-3.0-1.26","true"
"794","ImagesCoins/10L102.5.png","188","test",",","image-keyboard-response","58","66462","0.0-3.0-1.27","true"
"1540","ImagesCoins/10L95.png","190","test",".","image-keyboard-response","60","68507","0.0-3.0-1.28","true"
"824","ImagesCoins/10R90.png","188","test",",","image-keyboard-response","62","69842","0.0-3.0-1.29","true"
"746","ImagesCoins/10L107.5.png","188","test",",","image-keyboard-response","64","71093","0.0-3.0-1.30","true"
"580","ImagesCoins/10R110.png","190","test",".","image-keyboard-response","66","72189","0.0-3.0-1.31","true"
"731","ImagesCoins/10R95.png","190","test",",","image-keyboard-response","68","73426","0.0-3.0-1.32","false"
"833","ImagesCoins/10L92.5.png","190","test",".","image-keyboard-response","70","74775","0.0-3.0-1.33","true"
"681","ImagesCoins/10R105.png","190","test",".","image-keyboard-response","72","75963","0.0-3.0-1.34","true"
"666","ImagesCoins/10L90.png","190","test",".","image-keyboard-response","74","77147","0.0-3.0-1.35","true"
"835","ImagesCoins/10L100.png","188","test",".","image-keyboard-response","76","78499","0.0-3.0-1.36","false"
"764","ImagesCoins/10L110.png","188","test",",","image-keyboard-response","78","79770","0.0-3.0-1.37","true"
"655","ImagesCoins/10R105.png","190","test",".","image-keyboard-response","80","80938","0.0-3.0-1.38","true"
"610","ImagesCoins/10R102.5.png","190","test",".","image-keyboard-response","82","82051","0.0-3.0-1.39","true"
"916","ImagesCoins/10R90.png","188","test",",","image-keyboard-response","84","83472","0.0-3.0-1.40","true"
"2480","ImagesCoins/10R97.5.png","190","test",",","image-keyboard-response","86","86469","0.0-3.0-1.41","false"
"999","ImagesCoins/10L107.5.png","188","test",",","image-keyboard-response","88","87974","0.0-3.0-1.42","true"
"776","ImagesCoins/10R92.5.png","188","test",",","image-keyboard-response","90","89256","0.0-3.0-1.43","true"
"665","ImagesCoins/10R95.png","190","test",",","image-keyboard-response","92","90426","0.0-3.0-1.44","false"
"606","ImagesCoins/10R100.png","190","test",".","image-keyboard-response","94","91535","0.0-3.0-1.45","true"
"645","ImagesCoins/10L102.5.png","188","test",",","image-keyboard-response","96","92697","0.0-3.0-1.46","true"
"489","ImagesCoins/10R110.png","190","test",".","image-keyboard-response","98","93694","0.0-3.0-1.47","true"
"864","ImagesCoins/10L95.png","190","test",".","image-keyboard-response","100","95066","0.0-3.0-1.48","true"
"921","ImagesCoins/10R107.5.png","190","test",".","image-keyboard-response","102","96490","0.0-3.0-1.49","true"
"3384","ImagesCoins/10L97.5.png","188","test",".","image-keyboard-response","104","100380","0.0-3.0-1.50","false"
"778","ImagesCoins/10L90.png","190","test",".","image-keyboard-response","106","101665","0.0-3.0-1.51","true"
"777","ImagesCoins/10L92.5.png","190","test",".","image-keyboard-response","108","102946","0.0-3.0-1.52","true"
"612","ImagesCoins/10L105.png","188","test",",","image-keyboard-response","110","104061","0.0-3.0-1.53","true"
"652","ImagesCoins/10R92.5.png","188","test",",","image-keyboard-response","112","105217","0.0-3.0-1.54","true"
"1528","ImagesCoins/10R97.5.png","190","test",",","image-keyboard-response","114","107249","0.0-3.0-1.55","false"
"565","ImagesCoins/10L95.png","190","test",".","image-keyboard-response","116","108334","0.0-3.0-1.56","true"
"540","ImagesCoins/10L107.5.png","188","test",",","image-keyboard-response","118","109378","0.0-3.0-1.57","true"
"909","ImagesCoins/10L97.5.png","190","test",".","image-keyboard-response","120","110790","0.0-3.0-1.58","true"
"2001","ImagesCoins/10R102.5.png","190","test",".","image-keyboard-response","122","113309","0.0-3.0-1.59","true"
"947","ImagesCoins/10R95.png","188","test",",","image-keyboard-response","124","114773","0.0-3.0-1.60","true"
"909","ImagesCoins/10L102.5.png","188","test",",","image-keyboard-response","126","116198","0.0-3.0-1.61","true"
"647","ImagesCoins/10R107.5.png","190","test",".","image-keyboard-response","128","117351","0.0-3.0-1.62","true"
"732","ImagesCoins/10L100.png","190","test",".","image-keyboard-response","130","118589","0.0-3.0-1.63","true"
"605","ImagesCoins/10R110.png","190","test",".","image-keyboard-response","132","119708","0.0-3.0-1.64","true"
"635","ImagesCoins/10L105.png","188","test",",","image-keyboard-response","134","120846","0.0-3.0-1.65","true"
"1463","ImagesCoins/10L110.png","188","test",",","image-keyboard-response","136","122815","0.0-3.0-1.66","true"
"590","ImagesCoins/10R105.png","190","test",".","image-keyboard-response","138","123908","0.0-3.0-1.67","true"
"610","ImagesCoins/10L92.5.png","188","test",".","image-keyboard-response","140","125021","0.0-3.0-1.68","false"
"928","ImagesCoins/10R100.png","190","test",".","image-keyboard-response","142","126460","0.0-3.0-1.69","true"
"1037","ImagesCoins/10R90.png","188","test",",","image-keyboard-response","144","128004","0.0-3.0-1.70","true"
"879","ImagesCoins/10L90.png","190","test",".","image-keyboard-response","146","129386","0.0-3.0-1.71","true"
"791","ImagesCoins/10R90.png","188","test",",","image-keyboard-response","148","130686","0.0-3.0-1.72","true"
"647","ImagesCoins/10L92.5.png","190","test",".","image-keyboard-response","150","131846","0.0-3.0-1.73","true"
"733","ImagesCoins/10L95.png","190","test",".","image-keyboard-response","152","133084","0.0-3.0-1.74","true"
"862","ImagesCoins/10R92.5.png","188","test",",","image-keyboard-response","154","134459","0.0-3.0-1.75","true"
"922","ImagesCoins/10R97.5.png","190","test",",","image-keyboard-response","156","135891","0.0-3.0-1.76","false"
"655","ImagesCoins/10L105.png","188","test",",","image-keyboard-response","158","137050","0.0-3.0-1.77","true"
"757","ImagesCoins/10L100.png","188","test",".","image-keyboard-response","160","138319","0.0-3.0-1.78","false"
"879","ImagesCoins/10R95.png","188","test",",","image-keyboard-response","162","139703","0.0-3.0-1.79","true"
"563","ImagesCoins/10R107.5.png","190","test",".","image-keyboard-response","164","140784","0.0-3.0-1.80","true"
"484","ImagesCoins/10R110.png","190","test",".","image-keyboard-response","166","141772","0.0-3.0-1.81","true"
"522","ImagesCoins/10L102.5.png","188","test",",","image-keyboard-response","168","142802","0.0-3.0-1.82","true"
"1304","ImagesCoins/10R105.png","190","test",".","image-keyboard-response","170","144610","0.0-3.0-1.83","true"
"598","ImagesCoins/10R100.png","190","test",".","image-keyboard-response","172","145713","0.0-3.0-1.84","true"
"575","ImagesCoins/10L110.png","188","test",",","image-keyboard-response","174","146795","0.0-3.0-1.85","true"
"603","ImagesCoins/10L90.png","190","test",".","image-keyboard-response","176","147910","0.0-3.0-1.86","true"
"779","ImagesCoins/10L97.5.png","190","test",".","image-keyboard-response","178","149194","0.0-3.0-1.87","true"
"623","ImagesCoins/10L107.5.png","188","test",",","image-keyboard-response","180","150322","0.0-3.0-1.88","true"
"858","ImagesCoins/10R102.5.png","190","test",".","image-keyboard-response","182","151686","0.0-3.0-1.89","true"
"1315","ImagesTennis/TL92.5.png","190","test",".","image-keyboard-response","184","153515","0.0-4.0-1.0","true"
"1418","ImagesDirect/VL97.5.png","188","test",".","image-keyboard-response","186","155442","0.0-4.0-1.1","false"
"839","ImagesSoccer/VL105.png","188","test",",","image-keyboard-response","188","156786","0.0-4.0-1.2","true"
"2472","ImagesSoccer/VR95.png","188","test",",","image-keyboard-response","190","159763","0.0-4.0-1.3","true"
"1019","ImagesTennis/TR110.png","190","test",".","image-keyboard-response","192","161291","0.0-4.0-1.4","true"
"1656","ImagesDirect/VL100.png","188","test",".","image-keyboard-response","194","163451","0.0-4.0-1.5","false"
"4384","ImagesDirect/VR95.png","188","test",",","image-keyboard-response","196","168340","0.0-4.0-1.6","true"
"2280","ImagesTennis/TR92.5.png","188","test",",","image-keyboard-response","198","171135","0.0-4.0-1.7","true"
"2115","ImagesTennis/TR95.png","188","test",",","image-keyboard-response","200","173758","0.0-4.0-1.8","true"
"1555","ImagesDirect/VR90.png","188","test",",","image-keyboard-response","202","175830","0.0-4.0-1.9","true"
"1014","ImagesSoccer/VL110.png","188","test",",","image-keyboard-response","204","177352","0.0-4.0-1.10","true"
"1021","ImagesSoccer/VR92.5.png","188","test",",","image-keyboard-response","206","178879","0.0-4.0-1.11","true"
"2952","ImagesDirect/VR92.5.png","188","test",",","image-keyboard-response","208","182336","0.0-4.0-1.12","true"
"730","ImagesSoccer/VR110.png","190","test",".","image-keyboard-response","210","183575","0.0-4.0-1.13","true"
"719","ImagesTennis/TR107.5.png","190","test",".","image-keyboard-response","212","184813","0.0-4.0-1.14","true"
"1298","ImagesTennis/TL107.5.png","188","test",",","image-keyboard-response","214","186621","0.0-4.0-1.15","true"
"717","ImagesTennis/TL97.5.png","190","test",".","image-keyboard-response","216","187847","0.0-4.0-1.16","true"
"1241","ImagesDirect/VR97.5.png","190","test",",","image-keyboard-response","218","189594","0.0-4.0-1.17","false"
"705","ImagesSoccer/VR90.png","188","test",",","image-keyboard-response","220","190814","0.0-4.0-1.18","true"
"836","ImagesDirect/VL90.png","190","test",".","image-keyboard-response","222","192153","0.0-4.0-1.19","true"
"2007","ImagesDirect/VL95.png","190","test",".","image-keyboard-response","224","194668","0.0-4.0-1.20","true"
"734","ImagesSoccer/VL102.5.png","188","test",",","image-keyboard-response","226","195909","0.0-4.0-1.21","true"
"925","ImagesSoccer/VR100.png","190","test",".","image-keyboard-response","228","197345","0.0-4.0-1.22","true"
"1338","ImagesTennis/TL105.png","188","test",",","image-keyboard-response","230","199193","0.0-4.0-1.23","true"
"1128","ImagesSoccer/VL95.png","190","test",".","image-keyboard-response","232","200831","0.0-4.0-1.24","true"
"760","ImagesTennis/TL95.png","190","test",".","image-keyboard-response","234","202107","0.0-4.0-1.25","true"
"794","ImagesDirect/VR105.png","190","test",".","image-keyboard-response","236","203409","0.0-4.0-1.26","true"
"640","ImagesDirect/VR107.5.png","190","test",".","image-keyboard-response","238","204559","0.0-4.0-1.27","true"
"559","ImagesSoccer/VL107.5.png","188","test",",","image-keyboard-response","240","205621","0.0-4.0-1.28","true"
"3168","ImagesTennis/TL102.5.png","190","test",",","image-keyboard-response","242","209301","0.0-4.0-1.29","false"
"1221","ImagesDirect/VL107.5.png","188","test",",","image-keyboard-response","244","211035","0.0-4.0-1.30","true"
"964","ImagesSoccer/VR102.5.png","190","test",".","image-keyboard-response","246","212508","0.0-4.0-1.31","true"
"1730","ImagesSoccer/VL97.5.png","188","test",".","image-keyboard-response","248","214742","0.0-4.0-1.32","false"
"1876","ImagesDirect/VL102.5.png","188","test",",","image-keyboard-response","250","217122","0.0-4.0-1.33","true"
"601","ImagesTennis/TL90.png","190","test",".","image-keyboard-response","252","218232","0.0-4.0-1.34","true"
"673","ImagesSoccer/VL100.png","188","test",".","image-keyboard-response","254","219415","0.0-4.0-1.35","false"
"1310","ImagesTennis/TR102.5.png","190","test",".","image-keyboard-response","256","221237","0.0-4.0-1.36","true"
"796","ImagesTennis/TL110.png","188","test",",","image-keyboard-response","258","222541","0.0-4.0-1.37","true"
"1078","ImagesSoccer/VR97.5.png","190","test",",","image-keyboard-response","260","224127","0.0-4.0-1.38","false"
"735","ImagesDirect/VL110.png","188","test",",","image-keyboard-response","262","225366","0.0-4.0-1.39","true"
"764","ImagesTennis/TR90.png","188","test",",","image-keyboard-response","264","226634","0.0-4.0-1.40","true"
"879","ImagesTennis/TR105.png","190","test",".","image-keyboard-response","266","228016","0.0-4.0-1.41","true"
"743","ImagesSoccer/VR105.png","190","test",".","image-keyboard-response","268","229276","0.0-4.0-1.42","true"
"1985","ImagesTennis/TL100.png","188","test",".","image-keyboard-response","270","231776","0.0-4.0-1.43","false"
"732","ImagesDirect/VR100.png","190","test",".","image-keyboard-response","272","233023","0.0-4.0-1.44","true"
"766","ImagesSoccer/VL92.5.png","190","test",".","image-keyboard-response","274","234295","0.0-4.0-1.45","true"
"1622","ImagesTennis/TR100.png","190","test",".","image-keyboard-response","276","236427","0.0-4.0-1.46","true"
"2425","ImagesTennis/TR97.5.png","188","test",",","image-keyboard-response","278","239357","0.0-4.0-1.47","true"
"615","ImagesSoccer/VR107.5.png","190","test",".","image-keyboard-response","280","240488","0.0-4.0-1.48","true"
"555","ImagesDirect/VR110.png","190","test",".","image-keyboard-response","282","241546","0.0-4.0-1.49","true"
"748","ImagesSoccer/VL90.png","190","test",".","image-keyboard-response","284","242805","0.0-4.0-1.50","true"
"1339","ImagesDirect/VR102.5.png","190","test",".","image-keyboard-response","286","244650","0.0-4.0-1.51","true"
"833","ImagesDirect/VL92.5.png","190","test",".","image-keyboard-response","288","245988","0.0-4.0-1.52","true"
"1064","ImagesDirect/VL105.png","188","test",",","image-keyboard-response","290","247559","0.0-4.0-1.53","true"
"945","ImagesDirect/VL92.5.png","190","test",".","image-keyboard-response","292","249017","0.0-4.0-1.54","true"
"2482","ImagesSoccer/VL97.5.png","190","test",".","image-keyboard-response","294","252004","0.0-4.0-1.55","true"
"848","ImagesTennis/TR92.5.png","188","test",",","image-keyboard-response","296","253365","0.0-4.0-1.56","true"
"775","ImagesTennis/TL95.png","190","test",".","image-keyboard-response","298","254655","0.0-4.0-1.57","true"
"691","ImagesDirect/VR105.png","190","test",".","image-keyboard-response","300","255853","0.0-4.0-1.58","true"
"1213","ImagesDirect/VL90.png","190","test",".","image-keyboard-response","302","257576","0.0-4.0-1.59","true"
"1492","ImagesSoccer/VL100.png","188","test",".","image-keyboard-response","304","259576","0.0-4.0-1.60","false"
"1035","ImagesTennis/TL97.5.png","190","test",".","image-keyboard-response","306","261118","0.0-4.0-1.61","true"
"617","ImagesSoccer/VR107.5.png","190","test",".","image-keyboard-response","308","262249","0.0-4.0-1.62","true"
"1024","ImagesSoccer/VR102.5.png","190","test",".","image-keyboard-response","310","263779","0.0-4.0-1.63","true"
"1116","ImagesTennis/TR105.png","190","test",".","image-keyboard-response","312","265401","0.0-4.0-1.64","true"
"1055","ImagesSoccer/VL92.5.png","190","test",".","image-keyboard-response","314","266961","0.0-4.0-1.65","true"
"659","ImagesDirect/VR107.5.png","190","test",".","image-keyboard-response","316","268126","0.0-4.0-1.66","true"
"1304","ImagesTennis/TL102.5.png","188","test",",","image-keyboard-response","318","269937","0.0-4.0-1.67","true"
"954","ImagesSoccer/VR97.5.png","190","test",",","image-keyboard-response","320","271403","0.0-4.0-1.68","false"
"1331","ImagesDirect/VL95.png","190","test",".","image-keyboard-response","322","273242","0.0-4.0-1.69","true"
"736","ImagesTennis/TL107.5.png","188","test",",","image-keyboard-response","324","274492","0.0-4.0-1.70","true"
"1525","ImagesDirect/VR97.5.png","188","test",",","image-keyboard-response","326","276521","0.0-4.0-1.71","true"
"608","ImagesDirect/VL110.png","188","test",",","image-keyboard-response","328","277637","0.0-4.0-1.72","true"
"1680","ImagesTennis/TR100.png","188","test",".","image-keyboard-response","330","279830","0.0-4.0-1.73","false"
"785","ImagesTennis/TL110.png","188","test",",","image-keyboard-response","332","281121","0.0-4.0-1.74","true"
"1092","ImagesDirect/VL100.png","188","test",".","image-keyboard-response","334","282723","0.0-4.0-1.75","false"
"827","ImagesDirect/VR90.png","188","test",",","image-keyboard-response","336","284052","0.0-4.0-1.76","true"
"638","ImagesSoccer/VL107.5.png","188","test",",","image-keyboard-response","338","285195","0.0-4.0-1.77","true"
"592","ImagesDirect/VL102.5.png","188","test",",","image-keyboard-response","340","286292","0.0-4.0-1.78","true"
"685","ImagesTennis/TR102.5.png","190","test",".","image-keyboard-response","342","287483","0.0-4.0-1.79","true"
"599","ImagesSoccer/VL105.png","188","test",",","image-keyboard-response","344","288591","0.0-4.0-1.80","true"
"907","ImagesSoccer/VL95.png","190","test",".","image-keyboard-response","346","290007","0.0-4.0-1.81","true"
"763","ImagesTennis/TR97.5.png","188","test",",","image-keyboard-response","348","291288","0.0-4.0-1.82","true"
"709","ImagesDirect/VR102.5.png","190","test",".","image-keyboard-response","350","292501","0.0-4.0-1.83","true"
"654","ImagesDirect/VL105.png","188","test",",","image-keyboard-response","352","293660","0.0-4.0-1.84","true"
"2688","ImagesTennis/TL100.png","188","test",".","image-keyboard-response","354","296865","0.0-4.0-1.85","false"
"966","ImagesSoccer/VR90.png","188","test",",","image-keyboard-response","356","298337","0.0-4.0-1.86","true"
"1599","ImagesDirect/VR92.5.png","188","test",",","image-keyboard-response","358","300440","0.0-4.0-1.87","true"
"2296","ImagesDirect/VR95.png","188","test",",","image-keyboard-response","360","303241","0.0-4.0-1.88","true"
"616","ImagesSoccer/VR100.png","190","test",".","image-keyboard-response","362","304363","0.0-4.0-1.89","true"
"1123","ImagesDirect/VL97.5.png","188","test",".","image-keyboard-response","364","305993","0.0-4.0-1.90","false"
"1207","ImagesSoccer/VR95.png","190","test",",","image-keyboard-response","366","307717","0.0-4.0-1.91","false"
"962","ImagesSoccer/VR110.png","190","test",".","image-keyboard-response","368","309195","0.0-4.0-1.92","true"
"1028","ImagesSoccer/VR105.png","190","test",".","image-keyboard-response","370","310730","0.0-4.0-1.93","true"
"819","ImagesTennis/TR110.png","190","test",".","image-keyboard-response","372","312058","0.0-4.0-1.94","true"
"3693","ImagesTennis/TR95.png","188","test",",","image-keyboard-response","374","316255","0.0-4.0-1.95","true"
"1326","ImagesTennis/TR90.png","188","test",",","image-keyboard-response","376","318088","0.0-4.0-1.96","true"
"821","ImagesSoccer/VL90.png","190","test",".","image-keyboard-response","378","319413","0.0-4.0-1.97","true"
"843","ImagesSoccer/VL110.png","188","test",",","image-keyboard-response","380","320764","0.0-4.0-1.98","true"
"729","ImagesDirect/VL107.5.png","188","test",",","image-keyboard-response","382","322009","0.0-4.0-1.99","true"
"824","ImagesTennis/TR107.5.png","190","test",".","image-keyboard-response","384","323355","0.0-4.0-1.100","true"
"841","ImagesTennis/TL105.png","188","test",",","image-keyboard-response","386","324714","0.0-4.0-1.101","true"
"873","ImagesSoccer/VL102.5.png","188","test",",","image-keyboard-response","388","326116","0.0-4.0-1.102","true"
"918","ImagesDirect/VR100.png","190","test",".","image-keyboard-response","390","327549","0.0-4.0-1.103","true"
"1046","ImagesTennis/TL90.png","190","test",".","image-keyboard-response","392","329111","0.0-4.0-1.104","true"
"1538","ImagesSoccer/VR92.5.png","188","test",",","image-keyboard-response","394","331155","0.0-4.0-1.105","true"
"833","ImagesTennis/TL92.5.png","190","test",".","image-keyboard-response","396","332518","0.0-4.0-1.106","true"
"795","ImagesDirect/VR110.png","190","test",".","image-keyboard-response","398","333839","0.0-4.0-1.107","true"
"858","ImagesDirect/VR95.png","188","test",",","image-keyboard-response","400","335205","0.0-4.0-1.108","true"
"944","ImagesDirect/VL90.png","190","test",".","image-keyboard-response","402","336655","0.0-4.0-1.109","true"
"806","ImagesTennis/TR102.5.png","190","test",".","image-keyboard-response","404","337978","0.0-4.0-1.110","true"
"868","ImagesDirect/VR90.png","188","test",",","image-keyboard-response","406","339353","0.0-4.0-1.111","true"
"1016","ImagesSoccer/VR92.5.png","188","test",",","image-keyboard-response","408","340878","0.0-4.0-1.112","true"
"827","ImagesTennis/TL97.5.png","190","test",".","image-keyboard-response","410","342217","0.0-4.0-1.113","true"
"629","ImagesTennis/TL92.5.png","190","test",".","image-keyboard-response","412","343353","0.0-4.0-1.114","true"
"642","ImagesSoccer/VL102.5.png","188","test",",","image-keyboard-response","414","344507","0.0-4.0-1.115","true"
"555","ImagesSoccer/VL107.5.png","188","test",",","image-keyboard-response","416","345580","0.0-4.0-1.116","true"
"509","ImagesTennis/TL90.png","190","test",".","image-keyboard-response","418","346592","0.0-4.0-1.117","true"
"631","ImagesDirect/VL92.5.png","190","test",".","image-keyboard-response","420","347739","0.0-4.0-1.118","true"
"970","ImagesSoccer/VL95.png","190","test",".","image-keyboard-response","422","349223","0.0-4.0-1.119","true"
"878","ImagesDirect/VL95.png","188","test",".","image-keyboard-response","424","350605","0.0-4.0-1.120","false"
"601","ImagesDirect/VL105.png","188","test",",","image-keyboard-response","426","351711","0.0-4.0-1.121","true"
"742","ImagesTennis/TR92.5.png","188","test",",","image-keyboard-response","428","352962","0.0-4.0-1.122","true"
"706","ImagesSoccer/VR110.png","190","test",".","image-keyboard-response","430","354184","0.0-4.0-1.123","true"
"786","ImagesDirect/VR92.5.png","188","test",",","image-keyboard-response","432","355474","0.0-4.0-1.124","true"
"1030","ImagesSoccer/VL90.png","190","test",".","image-keyboard-response","434","357007","0.0-4.0-1.125","true"
"793","ImagesSoccer/VR107.5.png","190","test",".","image-keyboard-response","436","358311","0.0-4.0-1.126","true"
"780","ImagesSoccer/VR102.5.png","190","test",".","image-keyboard-response","438","359598","0.0-4.0-1.127","true"
"618","ImagesSoccer/VR95.png","188","test",",","image-keyboard-response","440","360721","0.0-4.0-1.128","true"
"1187","ImagesSoccer/VL92.5.png","190","test",".","image-keyboard-response","442","362412","0.0-4.0-1.129","true"
"648","ImagesDirect/VR107.5.png","190","test",".","image-keyboard-response","444","363571","0.0-4.0-1.130","true"
"502","ImagesSoccer/VR105.png","190","test",".","image-keyboard-response","446","364592","0.0-4.0-1.131","true"
"604","ImagesSoccer/VL100.png","188","test",".","image-keyboard-response","448","365712","0.0-4.0-1.132","false"
"589","ImagesTennis/TL107.5.png","188","test",",","image-keyboard-response","450","366805","0.0-4.0-1.133","true"
"549","ImagesSoccer/VR90.png","188","test",",","image-keyboard-response","452","367870","0.0-4.0-1.134","true"
"713","ImagesTennis/TR95.png","188","test",",","image-keyboard-response","454","369089","0.0-4.0-1.135","true"
"505","ImagesSoccer/VR100.png","190","test",".","image-keyboard-response","456","370102","0.0-4.0-1.136","true"
"611","ImagesSoccer/VL97.5.png","188","test",".","image-keyboard-response","458","371220","0.0-4.0-1.137","false"
"847","ImagesTennis/TL95.png","190","test",".","image-keyboard-response","460","372575","0.0-4.0-1.138","true"
"814","ImagesTennis/TR107.5.png","190","test",".","image-keyboard-response","462","373893","0.0-4.0-1.139","true"
"540","ImagesDirect/VL110.png","188","test",",","image-keyboard-response","464","374938","0.0-4.0-1.140","true"
"535","ImagesTennis/TL110.png","188","test",",","image-keyboard-response","466","375981","0.0-4.0-1.141","true"
"585","ImagesSoccer/VL105.png","188","test",",","image-keyboard-response","468","377076","0.0-4.0-1.142","true"
"549","ImagesDirect/VL107.5.png","188","test",",","image-keyboard-response","470","378131","0.0-4.0-1.143","true"
"680","ImagesDirect/VR105.png","190","test",".","image-keyboard-response","472","379315","0.0-4.0-1.144","true"
"1080","ImagesTennis/TR97.5.png","188","test",",","image-keyboard-response","474","380900","0.0-4.0-1.145","true"
"567","ImagesSoccer/VL110.png","188","test",",","image-keyboard-response","476","381974","0.0-4.0-1.146","true"
"943","ImagesDirect/VL97.5.png","188","test",".","image-keyboard-response","478","383437","0.0-4.0-1.147","false"
"638","ImagesDirect/VR102.5.png","190","test",".","image-keyboard-response","480","384582","0.0-4.0-1.148","true"
"798","ImagesTennis/TR110.png","190","test",".","image-keyboard-response","482","385883","0.0-4.0-1.149","true"
"748","ImagesDirect/VR110.png","190","test",".","image-keyboard-response","484","387134","0.0-4.0-1.150","true"
"806","ImagesDirect/VL100.png","188","test",".","image-keyboard-response","486","388446","0.0-4.0-1.151","false"
"633","ImagesTennis/TR90.png","188","test",",","image-keyboard-response","488","389585","0.0-4.0-1.152","true"
"537","ImagesDirect/VL102.5.png","188","test",",","image-keyboard-response","490","390629","0.0-4.0-1.153","true"
"663","ImagesTennis/TR105.png","190","test",".","image-keyboard-response","492","391796","0.0-4.0-1.154","true"
"1129","ImagesTennis/TR100.png","188","test",".","image-keyboard-response","494","393431","0.0-4.0-1.155","false"
"841","ImagesTennis/TL100.png","188","test",".","image-keyboard-response","496","394785","0.0-4.0-1.156","false"
"1213","ImagesTennis/TL105.png","188","test",",","image-keyboard-response","498","396504","0.0-4.0-1.157","true"
"888","ImagesDirect/VR97.5.png","190","test",",","image-keyboard-response","500","397898","0.0-4.0-1.158","false"
"894","ImagesSoccer/VR97.5.png","190","test",",","image-keyboard-response","502","399302","0.0-4.0-1.159","false"
"988","ImagesTennis/TL102.5.png","188","test",",","image-keyboard-response","504","400795","0.0-4.0-1.160","true"
"1010","ImagesDirect/VR100.png","188","test",".","image-keyboard-response","506","402330","0.0-4.0-1.161","false"
"820","ImagesTennis/TL110.png","188","test",",","image-keyboard-response","508","403656","0.0-4.0-1.162","true"
"613","ImagesSoccer/VR97.5.png","190","test",",","image-keyboard-response","510","404786","0.0-4.0-1.163","false"
"914","ImagesTennis/TL92.5.png","190","test",".","image-keyboard-response","512","406212","0.0-4.0-1.164","true"
"937","ImagesDirect/VL92.5.png","190","test",".","image-keyboard-response","514","407654","0.0-4.0-1.165","true"
"831","ImagesTennis/TL95.png","190","test",".","image-keyboard-response","516","409000","0.0-4.0-1.166","true"
"742","ImagesDirect/VR107.5.png","190","test",".","image-keyboard-response","518","410247","0.0-4.0-1.167","true"
"776","ImagesTennis/TR107.5.png","190","test",".","image-keyboard-response","520","411532","0.0-4.0-1.168","true"
"1810","ImagesSoccer/VL95.png","190","test",".","image-keyboard-response","522","413846","0.0-4.0-1.169","true"
"1021","ImagesDirect/VR102.5.png","190","test",".","image-keyboard-response","524","415374","0.0-4.0-1.170","true"
"1096","ImagesDirect/VR92.5.png","188","test",",","image-keyboard-response","526","416988","0.0-4.0-1.171","true"
"1205","ImagesDirect/VL90.png","190","test",".","image-keyboard-response","528","418709","0.0-4.0-1.172","true"
"979","ImagesTennis/TR95.png","188","test",",","image-keyboard-response","530","420206","0.0-4.0-1.173","true"
"673","ImagesTennis/TR92.5.png","188","test",",","image-keyboard-response","532","421393","0.0-4.0-1.174","true"
"742","ImagesTennis/TL107.5.png","188","test",",","image-keyboard-response","534","422642","0.0-4.0-1.175","true"
"581","ImagesDirect/VL110.png","188","test",",","image-keyboard-response","536","423729","0.0-4.0-1.176","true"
"850","ImagesTennis/TL100.png","190","test",".","image-keyboard-response","538","425096","0.0-4.0-1.177","true"
"807","ImagesTennis/TL102.5.png","188","test",",","image-keyboard-response","540","426411","0.0-4.0-1.178","true"
"898","ImagesDirect/VL97.5.png","188","test",".","image-keyboard-response","542","427813","0.0-4.0-1.179","false"
"1097","ImagesTennis/TR97.5.png","190","test",",","image-keyboard-response","544","429414","0.0-4.0-1.180","false"
"615","ImagesDirect/VL105.png","188","test",",","image-keyboard-response","546","430548","0.0-4.0-1.181","true"
"631","ImagesDirect/VL95.png","190","test",".","image-keyboard-response","548","431683","0.0-4.0-1.182","true"
"559","ImagesSoccer/VR110.png","190","test",".","image-keyboard-response","550","432748","0.0-4.0-1.183","true"
"664","ImagesTennis/TL105.png","188","test",",","image-keyboard-response","552","433926","0.0-4.0-1.184","true"
"535","ImagesTennis/TR90.png","188","test",",","image-keyboard-response","554","434976","0.0-4.0-1.185","true"
"730","ImagesDirect/VR100.png","190","test",".","image-keyboard-response","556","436223","0.0-4.0-1.186","true"
"523","ImagesDirect/VR105.png","190","test",".","image-keyboard-response","558","437251","0.0-4.0-1.187","true"
"545","ImagesDirect/VR97.5.png","188","test",",","image-keyboard-response","560","438316","0.0-4.0-1.188","true"
"1035","ImagesTennis/TR102.5.png","190","test",".","image-keyboard-response","562","439862","0.0-4.0-1.189","true"
"514","ImagesDirect/VL102.5.png","188","test",",","image-keyboard-response","564","440883","0.0-4.0-1.190","true"
"570","ImagesSoccer/VL102.5.png","188","test",",","image-keyboard-response","566","441956","0.0-4.0-1.191","true"
"553","ImagesTennis/TR110.png","190","test",".","image-keyboard-response","568","443015","0.0-4.0-1.192","true"
"516","ImagesTennis/TL90.png","190","test",".","image-keyboard-response","570","444035","0.0-4.0-1.193","true"
"597","ImagesSoccer/VL110.png","188","test",",","image-keyboard-response","572","445136","0.0-4.0-1.194","true"
"730","ImagesDirect/VL100.png","188","test",".","image-keyboard-response","574","446376","0.0-4.0-1.195","false"
"633","ImagesSoccer/VR92.5.png","188","test",",","image-keyboard-response","576","447519","0.0-4.0-1.196","true"
"982","ImagesSoccer/VL100.png","188","test",".","image-keyboard-response","578","449015","0.0-4.0-1.197","false"
"543","ImagesSoccer/VR102.5.png","190","test",".","image-keyboard-response","580","450063","0.0-4.0-1.198","true"
"3326","ImagesDirect/VR95.png","188","test",",","image-keyboard-response","582","453894","0.0-4.0-1.199","true"
"1556","ImagesSoccer/VL92.5.png","190","test",".","image-keyboard-response","584","455956","0.0-4.0-1.200","true"
"728","ImagesSoccer/VR107.5.png","190","test",".","image-keyboard-response","586","457216","0.0-4.0-1.201","true"
"1014","ImagesTennis/TL97.5.png","190","test",".","image-keyboard-response","588","458740","0.0-4.0-1.202","true"
"637","ImagesSoccer/VL90.png","190","test",".","image-keyboard-response","590","459882","0.0-4.0-1.203","true"
"752","ImagesSoccer/VR105.png","190","test",".","image-keyboard-response","592","461146","0.0-4.0-1.204","true"
"806","ImagesTennis/TR105.png","190","test",".","image-keyboard-response","594","462458","0.0-4.0-1.205","true"
"630","ImagesSoccer/VR100.png","190","test",".","image-keyboard-response","596","463594","0.0-4.0-1.206","true"
"807","ImagesDirect/VR90.png","188","test",",","image-keyboard-response","598","464906","0.0-4.0-1.207","true"
"764","ImagesSoccer/VL97.5.png","188","test",".","image-keyboard-response","600","466191","0.0-4.0-1.208","false"
"1190","ImagesTennis/TR100.png","188","test",".","image-keyboard-response","602","467899","0.0-4.0-1.209","false"
"790","ImagesSoccer/VL107.5.png","188","test",",","image-keyboard-response","604","469197","0.0-4.0-1.210","true"
"625","ImagesDirect/VL107.5.png","188","test",",","image-keyboard-response","606","470332","0.0-4.0-1.211","true"
"715","ImagesSoccer/VR90.png","188","test",",","image-keyboard-response","608","471551","0.0-4.0-1.212","true"
"2082","ImagesSoccer/VR95.png","188","test",",","image-keyboard-response","610","474139","0.0-4.0-1.213","true"
"707","ImagesSoccer/VL105.png","188","test",",","image-keyboard-response","612","475351","0.0-4.0-1.214","true"
"664","ImagesDirect/VR110.png","190","test",".","image-keyboard-response","614","476521","0.0-4.0-1.215","true"
"589","ImagesDirect/VL105.png","188","test",",","image-keyboard-response","616","477617","0.0-4.0-1.216","true"
"755","ImagesDirect/VL102.5.png","188","test",",","image-keyboard-response","618","478884","0.0-4.0-1.217","true"
"742","ImagesSoccer/VR105.png","190","test",".","image-keyboard-response","620","480134","0.0-4.0-1.218","true"
"663","ImagesTennis/TL97.5.png","188","test",".","image-keyboard-response","622","481305","0.0-4.0-1.219","false"
"633","ImagesSoccer/VL105.png","188","test",",","image-keyboard-response","624","482448","0.0-4.0-1.220","true"
"624","ImagesDirect/VR100.png","190","test",".","image-keyboard-response","626","483577","0.0-4.0-1.221","true"
"1188","ImagesSoccer/VR97.5.png","188","test",",","image-keyboard-response","628","485273","0.0-4.0-1.222","true"
"570","ImagesDirect/VL107.5.png","188","test",",","image-keyboard-response","630","486352","0.0-4.0-1.223","true"
"516","ImagesSoccer/VL107.5.png","188","test",",","image-keyboard-response","632","487374","0.0-4.0-1.224","true"
"664","ImagesTennis/TR97.5.png","190","test",",","image-keyboard-response","634","488554","0.0-4.0-1.225","false"
"563","ImagesDirect/VL90.png","190","test",".","image-keyboard-response","636","489624","0.0-4.0-1.226","true"
"497","ImagesDirect/VR107.5.png","190","test",".","image-keyboard-response","638","490629","0.0-4.0-1.227","true"
"1418","ImagesTennis/TR102.5.png","188","test",".","image-keyboard-response","640","492550","0.0-4.0-1.228","false"
"544","ImagesDirect/VL100.png","188","test",".","image-keyboard-response","642","493600","0.0-4.0-1.229","false"
"654","ImagesTennis/TL92.5.png","190","test",".","image-keyboard-response","644","494772","0.0-4.0-1.230","true"
"725","ImagesSoccer/VL97.5.png","188","test",".","image-keyboard-response","646","496003","0.0-4.0-1.231","false"
"528","ImagesSoccer/VL110.png","188","test",",","image-keyboard-response","648","497043","0.0-4.0-1.232","true"
"548","ImagesDirect/VL110.png","188","test",",","image-keyboard-response","650","498095","0.0-4.0-1.233","true"
"789","ImagesDirect/VR90.png","188","test",",","image-keyboard-response","652","499399","0.0-4.0-1.234","true"
"483","ImagesSoccer/VR110.png","190","test",".","image-keyboard-response","654","500397","0.0-4.0-1.235","true"
"680","ImagesTennis/TL102.5.png","188","test",",","image-keyboard-response","656","501583","0.0-4.0-1.236","true"
"582","ImagesDirect/VR92.5.png","188","test",",","image-keyboard-response","658","502680","0.0-4.0-1.237","true"
"771","ImagesSoccer/VR100.png","190","test",".","image-keyboard-response","660","503954","0.0-4.0-1.238","true"
"574","ImagesTennis/TR90.png","188","test",",","image-keyboard-response","662","505043","0.0-4.0-1.239","true"
"577","ImagesDirect/VR95.png","190","test",",","image-keyboard-response","664","506127","0.0-4.0-1.240","false"
"542","ImagesSoccer/VR107.5.png","190","test",".","image-keyboard-response","666","507173","0.0-4.0-1.241","true"
"585","ImagesTennis/TL107.5.png","188","test",",","image-keyboard-response","668","508275","0.0-4.0-1.242","true"
"1303","ImagesDirect/VR97.5.png","190","test",",","image-keyboard-response","670","510087","0.0-4.0-1.243","false"
"668","ImagesTennis/TR95.png","188","test",",","image-keyboard-response","672","511264","0.0-4.0-1.244","true"
"977","ImagesTennis/TL100.png","188","test",".","image-keyboard-response","674","512752","0.0-4.0-1.245","false"
"761","ImagesSoccer/VL100.png","188","test",".","image-keyboard-response","676","514018","0.0-4.0-1.246","false"
"689","ImagesSoccer/VR90.png","188","test",",","image-keyboard-response","678","515214","0.0-4.0-1.247","true"
"614","ImagesSoccer/VL90.png","190","test",".","image-keyboard-response","680","516353","0.0-4.0-1.248","true"
"814","ImagesSoccer/VL102.5.png","188","test",",","image-keyboard-response","682","517672","0.0-4.0-1.249","true"
"843","ImagesTennis/TR100.png","188","test",".","image-keyboard-response","684","519024","0.0-4.0-1.250","false"
"658","ImagesDirect/VL95.png","190","test",".","image-keyboard-response","686","520188","0.0-4.0-1.251","true"
"568","ImagesTennis/TL90.png","190","test",".","image-keyboard-response","688","521265","0.0-4.0-1.252","true"
"638","ImagesDirect/VL92.5.png","190","test",".","image-keyboard-response","690","522419","0.0-4.0-1.253","true"
"536","ImagesSoccer/VL92.5.png","190","test",".","image-keyboard-response","692","523459","0.0-4.0-1.254","true"
"528","ImagesTennis/TL95.png","190","test",".","image-keyboard-response","694","524506","0.0-4.0-1.255","true"
"1085","ImagesSoccer/VR102.5.png","188","test",".","image-keyboard-response","696","526097","0.0-4.0-1.256","false"
"917","ImagesSoccer/VL95.png","190","test",".","image-keyboard-response","698","527523","0.0-4.0-1.257","true"
"670","ImagesSoccer/VR92.5.png","188","test",",","image-keyboard-response","700","528715","0.0-4.0-1.258","true"
"680","ImagesTennis/TR105.png","190","test",".","image-keyboard-response","702","529902","0.0-4.0-1.259","true"
"561","ImagesTennis/TL105.png","188","test",",","image-keyboard-response","704","530989","0.0-4.0-1.260","true"
"581","ImagesTennis/TR110.png","190","test",".","image-keyboard-response","706","532076","0.0-4.0-1.261","true"
"614","ImagesDirect/VR105.png","190","test",".","image-keyboard-response","708","533199","0.0-4.0-1.262","true"
"658","ImagesTennis/TL110.png","188","test",",","image-keyboard-response","710","534368","0.0-4.0-1.263","true"
"834","ImagesTennis/TR107.5.png","190","test",".","image-keyboard-response","712","535723","0.0-4.0-1.264","true"
"692","ImagesTennis/TR92.5.png","188","test",",","image-keyboard-response","714","536926","0.0-4.0-1.265","true"
"1118","ImagesSoccer/VR95.png","188","test",",","image-keyboard-response","716","538552","0.0-4.0-1.266","true"
"984","ImagesDirect/VL97.5.png","188","test",".","image-keyboard-response","718","540040","0.0-4.0-1.267","false"
"701","ImagesDirect/VR102.5.png","190","test",".","image-keyboard-response","720","541244","0.0-4.0-1.268","true"
"504","ImagesDirect/VR110.png","190","test",".","image-keyboard-response","722","542253","0.0-4.0-1.269","true"
