"rt","stimulus","key_press","test_part","correct_response","trial_type","trial_index","time_elapsed","internal_node_id","correct"
"1172","ImagesDirect/VR100.png","190","test",".","image-keyboard-response","4","27821","0.0-3.0-1.0","true"
"1582","ImagesTennis/TL100.png","188","test",".","image-keyboard-response","6","29914","0.0-3.0-1.1","false"
"1230","ImagesSoccer/VR105.png","190","test",".","image-keyboard-response","8","31663","0.0-3.0-1.2","true"
"1612","ImagesDirect/VR95.png","188","test",",","image-keyboard-response","10","33788","0.0-3.0-1.3","true"
"2227","ImagesDirect/VL100.png","188","test",".","image-keyboard-response","12","36521","0.0-3.0-1.4","false"
"2184","ImagesDirect/VL102.5.png","188","test",",","image-keyboard-response","14","39211","0.0-3.0-1.5","true"
"1063","ImagesSoccer/VL90.png","190","test",".","image-keyboard-response","16","40786","0.0-3.0-1.6","true"
"1208","ImagesTennis/TR95.png","188","test",",","image-keyboard-response","18","42505","0.0-3.0-1.7","true"
"1261","ImagesSoccer/VR102.5.png","190","test",".","image-keyboard-response","20","44284","0.0-3.0-1.8","true"
"967","ImagesDirect/VR102.5.png","190","test",".","image-keyboard-response","22","45763","0.0-3.0-1.9","true"
"947","ImagesSoccer/VR92.5.png","188","test",",","image-keyboard-response","24","47227","0.0-3.0-1.10","true"
"848","ImagesDirect/VL110.png","188","test",",","image-keyboard-response","26","48579","0.0-3.0-1.11","true"
"838","ImagesDirect/VR110.png","190","test",".","image-keyboard-response","28","49924","0.0-3.0-1.12","true"
"883","ImagesDirect/VL90.png","188","test",".","image-keyboard-response","30","51313","0.0-3.0-1.13","false"
"1519","ImagesTennis/TL107.5.png","188","test",",","image-keyboard-response","32","53351","0.0-3.0-1.14","true"
"1325","ImagesTennis/TL102.5.png","190","test",",","image-keyboard-response","34","55188","0.0-3.0-1.15","false"
"957","ImagesSoccer/VL107.5.png","188","test",",","image-keyboard-response","36","56664","0.0-3.0-1.16","true"
"1323","ImagesTennis/TR105.png","190","test",".","image-keyboard-response","38","58504","0.0-3.0-1.17","true"
"926","ImagesDirect/VL107.5.png","188","test",",","image-keyboard-response","40","59949","0.0-3.0-1.18","true"
"790","ImagesTennis/TL90.png","190","test",".","image-keyboard-response","42","61257","0.0-3.0-1.19","true"
"941","ImagesSoccer/VR90.png","188","test",",","image-keyboard-response","44","62722","0.0-3.0-1.20","true"
"1032","ImagesSoccer/VL100.png","188","test",".","image-keyboard-response","46","64267","0.0-3.0-1.21","false"
"1115","ImagesTennis/TL97.5.png","190","test",".","image-keyboard-response","48","65901","0.0-3.0-1.22","true"
"1099","ImagesTennis/TL105.png","188","test",",","image-keyboard-response","50","67511","0.0-3.0-1.23","true"
"897","ImagesSoccer/VR110.png","190","test",".","image-keyboard-response","52","68927","0.0-3.0-1.24","true"
"1042","ImagesTennis/TR92.5.png","188","test",",","image-keyboard-response","54","70484","0.0-3.0-1.25","true"
"1459","ImagesTennis/TR97.5.png","188","test",",","image-keyboard-response","56","72461","0.0-3.0-1.26","true"
"1106","ImagesTennis/TL110.png","188","test",",","image-keyboard-response","58","74084","0.0-3.0-1.27","true"
"1253","ImagesDirect/VL95.png","188","test",".","image-keyboard-response","60","75843","0.0-3.0-1.28","false"
"1140","ImagesSoccer/VL97.5.png","190","test",".","image-keyboard-response","62","77489","0.0-3.0-1.29","true"
"806","ImagesDirect/VR105.png","190","test",".","image-keyboard-response","64","78804","0.0-3.0-1.30","true"
"1203","ImagesSoccer/VL102.5.png","188","test",",","image-keyboard-response","66","80528","0.0-3.0-1.31","true"
"698","ImagesSoccer/VR107.5.png","190","test",".","image-keyboard-response","68","81742","0.0-3.0-1.32","true"
"672","ImagesSoccer/VR100.png","190","test",".","image-keyboard-response","70","82943","0.0-3.0-1.33","true"
"740","ImagesSoccer/VL105.png","188","test",",","image-keyboard-response","72","84201","0.0-3.0-1.34","true"
"682","ImagesTennis/TR107.5.png","190","test",".","image-keyboard-response","74","85404","0.0-3.0-1.35","true"
"888","ImagesDirect/VL97.5.png","190","test",".","image-keyboard-response","76","86809","0.0-3.0-1.36","true"
"1047","ImagesSoccer/VL92.5.png","190","test",".","image-keyboard-response","78","88360","0.0-3.0-1.37","true"
"919","ImagesSoccer/VL110.png","188","test",",","image-keyboard-response","80","89799","0.0-3.0-1.38","true"
"770","ImagesTennis/TR110.png","190","test",".","image-keyboard-response","82","91079","0.0-3.0-1.39","true"
"1250","ImagesSoccer/VR97.5.png","188","test",",","image-keyboard-response","84","92838","0.0-3.0-1.40","true"
"863","ImagesDirect/VR90.png","188","test",",","image-keyboard-response","86","94231","0.0-3.0-1.41","true"
"741","ImagesTennis/TL95.png","190","test",".","image-keyboard-response","88","95494","0.0-3.0-1.42","true"
"1233","ImagesSoccer/VR95.png","188","test",",","image-keyboard-response","90","97244","0.0-3.0-1.43","true"
"670","ImagesDirect/VR107.5.png","190","test",".","image-keyboard-response","92","98427","0.0-3.0-1.44","true"
"2361","ImagesTennis/TR102.5.png","188","test",".","image-keyboard-response","94","101294","0.0-3.0-1.45","false"
"682","ImagesDirect/VR97.5.png","190","test",",","image-keyboard-response","96","102494","0.0-3.0-1.46","false"
"1257","ImagesSoccer/VL95.png","190","test",".","image-keyboard-response","98","104263","0.0-3.0-1.47","true"
"898","ImagesDirect/VR92.5.png","188","test",",","image-keyboard-response","100","105681","0.0-3.0-1.48","true"
"683","ImagesTennis/TR90.png","188","test",",","image-keyboard-response","102","106868","0.0-3.0-1.49","true"
"1887","ImagesTennis/TR100.png","188","test",".","image-keyboard-response","104","109274","0.0-3.0-1.50","false"
"617","ImagesDirect/VL105.png","188","test",",","image-keyboard-response","106","110404","0.0-3.0-1.51","true"
"755","ImagesDirect/VL92.5.png","190","test",".","image-keyboard-response","108","111668","0.0-3.0-1.52","true"
"800","ImagesTennis/TL92.5.png","190","test",".","image-keyboard-response","110","112987","0.0-3.0-1.53","true"
"2031","ImagesDirect/VR100.png","190","test",".","image-keyboard-response","112","115537","0.0-3.0-1.54","true"
"654","ImagesTennis/TL97.5.png","190","test",".","image-keyboard-response","114","116701","0.0-3.0-1.55","true"
"553","ImagesSoccer/VR100.png","190","test",".","image-keyboard-response","116","117760","0.0-3.0-1.56","true"
"738","ImagesTennis/TR110.png","190","test",".","image-keyboard-response","118","119018","0.0-3.0-1.57","true"
"585","ImagesTennis/TL110.png","188","test",",","image-keyboard-response","120","120116","0.0-3.0-1.58","true"
"694","ImagesTennis/TL100.png","190","test",".","image-keyboard-response","122","121330","0.0-3.0-1.59","true"
"639","ImagesSoccer/VL90.png","190","test",".","image-keyboard-response","124","122488","0.0-3.0-1.60","true"
"1096","ImagesDirect/VR92.5.png","188","test",",","image-keyboard-response","126","124096","0.0-3.0-1.61","true"
"581","ImagesSoccer/VL92.5.png","190","test",".","image-keyboard-response","128","125196","0.0-3.0-1.62","true"
"566","ImagesDirect/VR110.png","190","test",".","image-keyboard-response","130","126278","0.0-3.0-1.63","true"
"1007","ImagesTennis/TL95.png","190","test",".","image-keyboard-response","132","127797","0.0-3.0-1.64","true"
"711","ImagesDirect/VR102.5.png","190","test",".","image-keyboard-response","134","129026","0.0-3.0-1.65","true"
"611","ImagesDirect/VR107.5.png","190","test",".","image-keyboard-response","136","130155","0.0-3.0-1.66","true"
"597","ImagesTennis/TR92.5.png","188","test",",","image-keyboard-response","138","131265","0.0-3.0-1.67","true"
"876","ImagesSoccer/VL102.5.png","188","test",",","image-keyboard-response","140","132646","0.0-3.0-1.68","true"
"647","ImagesDirect/VR97.5.png","190","test",",","image-keyboard-response","142","133798","0.0-3.0-1.69","false"
"949","ImagesDirect/VR90.png","188","test",",","image-keyboard-response","144","135257","0.0-3.0-1.70","true"
"626","ImagesTennis/TL107.5.png","188","test",",","image-keyboard-response","146","136400","0.0-3.0-1.71","true"
"677","ImagesSoccer/VL100.png","188","test",".","image-keyboard-response","148","137596","0.0-3.0-1.72","false"
"1497","ImagesSoccer/VR97.5.png","188","test",",","image-keyboard-response","150","139611","0.0-3.0-1.73","true"
"848","ImagesTennis/TL90.png","190","test",".","image-keyboard-response","152","140976","0.0-3.0-1.74","true"
"823","ImagesTennis/TL102.5.png","190","test",",","image-keyboard-response","154","142319","0.0-3.0-1.75","false"
"1356","ImagesSoccer/VR105.png","190","test",".","image-keyboard-response","156","144195","0.0-3.0-1.76","true"
"845","ImagesDirect/VL100.png","188","test",".","image-keyboard-response","158","145549","0.0-3.0-1.77","false"
"940","ImagesSoccer/VR107.5.png","190","test",".","image-keyboard-response","160","147007","0.0-3.0-1.78","true"
"864","ImagesDirect/VR105.png","190","test",".","image-keyboard-response","162","148392","0.0-3.0-1.79","true"
"1753","ImagesDirect/VL90.png","190","test",".","image-keyboard-response","164","150652","0.0-3.0-1.80","true"
"1575","ImagesDirect/VL92.5.png","190","test",".","image-keyboard-response","166","152747","0.0-3.0-1.81","true"
"1321","ImagesSoccer/VR95.png","188","test",",","image-keyboard-response","168","154589","0.0-3.0-1.82","true"
"1307","ImagesTennis/TR95.png","188","test",",","image-keyboard-response","170","156414","0.0-3.0-1.83","true"
"1514","ImagesTennis/TR102.5.png","190","test",".","image-keyboard-response","172","158443","0.0-3.0-1.84","true"
"679","ImagesDirect/VL105.png","188","test",",","image-keyboard-response","174","159642","0.0-3.0-1.85","true"
"1760","ImagesDirect/VL97.5.png","190","test",".","image-keyboard-response","176","161918","0.0-3.0-1.86","true"
"780","ImagesTennis/TR90.png","188","test",",","image-keyboard-response","178","163219","0.0-3.0-1.87","true"
"1763","ImagesDirect/VL95.png","190","test",".","image-keyboard-response","180","165501","0.0-3.0-1.88","true"
"586","ImagesSoccer/VR110.png","190","test",".","image-keyboard-response","182","166603","0.0-3.0-1.89","true"
"1227","ImagesDirect/VL102.5.png","188","test",",","image-keyboard-response","184","168339","0.0-3.0-1.90","true"
"598","ImagesTennis/TR107.5.png","190","test",".","image-keyboard-response","186","169456","0.0-3.0-1.91","true"
"931","ImagesSoccer/VL95.png","190","test",".","image-keyboard-response","188","170907","0.0-3.0-1.92","true"
"956","ImagesSoccer/VR92.5.png","188","test",",","image-keyboard-response","190","172380","0.0-3.0-1.93","true"
"949","ImagesSoccer/VR102.5.png","190","test",".","image-keyboard-response","192","173848","0.0-3.0-1.94","true"
"621","ImagesDirect/VL107.5.png","188","test",",","image-keyboard-response","194","174986","0.0-3.0-1.95","true"
"655","ImagesDirect/VR95.png","190","test",",","image-keyboard-response","196","176158","0.0-3.0-1.96","false"
"737","ImagesSoccer/VR90.png","188","test",",","image-keyboard-response","198","177414","0.0-3.0-1.97","true"
"712","ImagesTennis/TL92.5.png","190","test",".","image-keyboard-response","200","178644","0.0-3.0-1.98","true"
"1007","ImagesTennis/TR100.png","188","test",".","image-keyboard-response","202","180164","0.0-3.0-1.99","false"
"1045","ImagesTennis/TR97.5.png","188","test",",","image-keyboard-response","204","181727","0.0-3.0-1.100","true"
"510","ImagesSoccer/VL110.png","188","test",",","image-keyboard-response","206","182756","0.0-3.0-1.101","true"
"612","ImagesTennis/TR105.png","190","test",".","image-keyboard-response","208","183888","0.0-3.0-1.102","true"
"689","ImagesSoccer/VL97.5.png","190","test",".","image-keyboard-response","210","185098","0.0-3.0-1.103","true"
"613","ImagesTennis/TL105.png","188","test",",","image-keyboard-response","212","186230","0.0-3.0-1.104","true"
"551","ImagesSoccer/VL107.5.png","188","test",",","image-keyboard-response","214","187288","0.0-3.0-1.105","true"
"520","ImagesDirect/VL110.png","188","test",",","image-keyboard-response","216","188328","0.0-3.0-1.106","true"
"552","ImagesSoccer/VL105.png","188","test",",","image-keyboard-response","218","189399","0.0-3.0-1.107","true"
"1638","ImagesDirect/VR92.5.png","188","test",",","image-keyboard-response","220","191556","0.0-3.0-1.108","true"
"1319","ImagesSoccer/VR92.5.png","188","test",",","image-keyboard-response","222","193393","0.0-3.0-1.109","true"
"855","ImagesTennis/TR90.png","188","test",",","image-keyboard-response","224","194765","0.0-3.0-1.110","true"
"589","ImagesDirect/VR102.5.png","190","test",".","image-keyboard-response","226","195867","0.0-3.0-1.111","true"
"817","ImagesTennis/TL105.png","188","test",",","image-keyboard-response","228","197201","0.0-3.0-1.112","true"
"1060","ImagesSoccer/VL92.5.png","190","test",".","image-keyboard-response","230","198781","0.0-3.0-1.113","true"
"725","ImagesTennis/TL102.5.png","188","test",",","image-keyboard-response","232","200025","0.0-3.0-1.114","true"
"1260","ImagesDirect/VL92.5.png","190","test",".","image-keyboard-response","234","201803","0.0-3.0-1.115","true"
"545","ImagesDirect/VL107.5.png","188","test",",","image-keyboard-response","236","202863","0.0-3.0-1.116","true"
"866","ImagesDirect/VL100.png","188","test",".","image-keyboard-response","238","204250","0.0-3.0-1.117","false"
"729","ImagesSoccer/VR102.5.png","190","test",".","image-keyboard-response","240","205494","0.0-3.0-1.118","true"
"903","ImagesTennis/TR107.5.png","190","test",".","image-keyboard-response","242","206916","0.0-3.0-1.119","true"
"584","ImagesDirect/VL110.png","188","test",",","image-keyboard-response","244","208017","0.0-3.0-1.120","true"
"570","ImagesDirect/VR107.5.png","190","test",".","image-keyboard-response","246","209094","0.0-3.0-1.121","true"
"1503","ImagesSoccer/VR97.5.png","190","test",",","image-keyboard-response","248","211116","0.0-3.0-1.122","false"
"654","ImagesTennis/TR92.5.png","188","test",",","image-keyboard-response","250","212286","0.0-3.0-1.123","true"
"708","ImagesTennis/TR102.5.png","190","test",".","image-keyboard-response","252","213501","0.0-3.0-1.124","true"
"1158","ImagesDirect/VR90.png","188","test",",","image-keyboard-response","254","215178","0.0-3.0-1.125","true"
"888","ImagesTennis/TR95.png","188","test",",","image-keyboard-response","256","216587","0.0-3.0-1.126","true"
"1009","ImagesTennis/TR100.png","190","test",".","image-keyboard-response","258","218110","0.0-3.0-1.127","true"
"649","ImagesTennis/TR110.png","190","test",".","image-keyboard-response","260","219281","0.0-3.0-1.128","true"
"1995","ImagesDirect/VR95.png","188","test",",","image-keyboard-response","262","221795","0.0-3.0-1.129","true"
"1461","ImagesSoccer/VR90.png","188","test",",","image-keyboard-response","264","223766","0.0-3.0-1.130","true"
"1706","ImagesSoccer/VL95.png","190","test",".","image-keyboard-response","266","225989","0.0-3.0-1.131","true"
"695","ImagesTennis/TL100.png","190","test",".","image-keyboard-response","268","227204","0.0-3.0-1.132","true"
"626","ImagesSoccer/VL105.png","188","test",",","image-keyboard-response","270","228343","0.0-3.0-1.133","true"
"1052","ImagesSoccer/VR95.png","188","test",",","image-keyboard-response","272","229913","0.0-3.0-1.134","true"
"620","ImagesSoccer/VR110.png","190","test",".","image-keyboard-response","274","231048","0.0-3.0-1.135","true"
"981","ImagesTennis/TR97.5.png","188","test",",","image-keyboard-response","276","232545","0.0-3.0-1.136","true"
"841","ImagesSoccer/VR100.png","190","test",".","image-keyboard-response","278","233893","0.0-3.0-1.137","true"
"769","ImagesSoccer/VL107.5.png","188","test",",","image-keyboard-response","280","235183","0.0-3.0-1.138","true"
"683","ImagesSoccer/VL110.png","188","test",",","image-keyboard-response","282","236384","0.0-3.0-1.139","true"
"877","ImagesSoccer/VL102.5.png","190","test",",","image-keyboard-response","284","237780","0.0-3.0-1.140","false"
"872","ImagesDirect/VL90.png","190","test",".","image-keyboard-response","286","239169","0.0-3.0-1.141","true"
"716","ImagesDirect/VR97.5.png","190","test",",","image-keyboard-response","288","240393","0.0-3.0-1.142","false"
"648","ImagesTennis/TL92.5.png","190","test",".","image-keyboard-response","290","241558","0.0-3.0-1.143","true"
"545","ImagesDirect/VL102.5.png","188","test",",","image-keyboard-response","292","242620","0.0-3.0-1.144","true"
"1031","ImagesDirect/VL95.png","190","test",".","image-keyboard-response","294","244159","0.0-3.0-1.145","true"
"817","ImagesSoccer/VL90.png","190","test",".","image-keyboard-response","296","245485","0.0-3.0-1.146","true"
"665","ImagesTennis/TL110.png","188","test",",","image-keyboard-response","298","246663","0.0-3.0-1.147","true"
"589","ImagesTennis/TL90.png","190","test",".","image-keyboard-response","300","247770","0.0-3.0-1.148","true"
"772","ImagesSoccer/VL100.png","188","test",".","image-keyboard-response","302","249051","0.0-3.0-1.149","false"
"921","ImagesTennis/TL95.png","190","test",".","image-keyboard-response","304","250481","0.0-3.0-1.150","true"
"591","ImagesDirect/VR100.png","190","test",".","image-keyboard-response","306","251591","0.0-3.0-1.151","true"
"536","ImagesDirect/VR110.png","190","test",".","image-keyboard-response","308","252646","0.0-3.0-1.152","true"
"1415","ImagesSoccer/VL97.5.png","190","test",".","image-keyboard-response","310","254580","0.0-3.0-1.153","true"
"692","ImagesTennis/TL97.5.png","190","test",".","image-keyboard-response","312","255784","0.0-3.0-1.154","true"
"636","ImagesSoccer/VR105.png","190","test",".","image-keyboard-response","314","256933","0.0-3.0-1.155","true"
"1246","ImagesSoccer/VR107.5.png","190","test",".","image-keyboard-response","316","258690","0.0-3.0-1.156","true"
"934","ImagesDirect/VL97.5.png","188","test",".","image-keyboard-response","318","260143","0.0-3.0-1.157","false"
"639","ImagesDirect/VR105.png","190","test",".","image-keyboard-response","320","261288","0.0-3.0-1.158","true"
"1994","ImagesTennis/TR105.png","190","test",".","image-keyboard-response","322","263799","0.0-3.0-1.159","true"
"922","ImagesTennis/TL107.5.png","188","test",",","image-keyboard-response","324","265239","0.0-3.0-1.160","true"
"657","ImagesDirect/VL105.png","188","test",",","image-keyboard-response","326","266415","0.0-3.0-1.161","true"
"619","ImagesTennis/TL92.5.png","190","test",".","image-keyboard-response","328","267545","0.0-3.0-1.162","true"
"1816","ImagesSoccer/VR95.png","188","test",",","image-keyboard-response","330","269879","0.0-3.0-1.163","true"
"2369","ImagesSoccer/VR97.5.png","190","test",",","image-keyboard-response","332","272765","0.0-3.0-1.164","false"
"1680","ImagesDirect/VR97.5.png","188","test",",","image-keyboard-response","334","274967","0.0-3.0-1.165","true"
"659","ImagesSoccer/VL92.5.png","190","test",".","image-keyboard-response","336","276143","0.0-3.0-1.166","true"
"684","ImagesSoccer/VR100.png","190","test",".","image-keyboard-response","338","277340","0.0-3.0-1.167","true"
"696","ImagesTennis/TR107.5.png","190","test",".","image-keyboard-response","340","278548","0.0-3.0-1.168","true"
"1997","ImagesTennis/TR102.5.png","188","test",".","image-keyboard-response","342","281078","0.0-3.0-1.169","false"
"781","ImagesTennis/TL97.5.png","190","test",".","image-keyboard-response","344","282378","0.0-3.0-1.170","true"
"931","ImagesDirect/VR102.5.png","190","test",".","image-keyboard-response","346","283827","0.0-3.0-1.171","true"
"720","ImagesSoccer/VL107.5.png","188","test",",","image-keyboard-response","348","285068","0.0-3.0-1.172","true"
"769","ImagesSoccer/VL110.png","188","test",",","image-keyboard-response","350","286357","0.0-3.0-1.173","true"
"632","ImagesTennis/TL100.png","190","test",".","image-keyboard-response","352","287499","0.0-3.0-1.174","true"
"1094","ImagesTennis/TR95.png","188","test",",","image-keyboard-response","354","289110","0.0-3.0-1.175","true"
"1586","ImagesSoccer/VL97.5.png","188","test",".","image-keyboard-response","356","291205","0.0-3.0-1.176","false"
"697","ImagesDirect/VR95.png","190","test",",","image-keyboard-response","358","292421","0.0-3.0-1.177","false"
"890","ImagesDirect/VR92.5.png","190","test",",","image-keyboard-response","360","293830","0.0-3.0-1.178","false"
"1324","ImagesTennis/TL105.png","190","test",",","image-keyboard-response","362","295667","0.0-3.0-1.179","false"
"687","ImagesDirect/VR105.png","190","test",".","image-keyboard-response","364","296873","0.0-3.0-1.180","true"
"672","ImagesSoccer/VR102.5.png","190","test",".","image-keyboard-response","366","298065","0.0-3.0-1.181","true"
"621","ImagesSoccer/VR110.png","190","test",".","image-keyboard-response","368","299206","0.0-3.0-1.182","true"
"744","ImagesTennis/TR97.5.png","188","test",",","image-keyboard-response","370","300484","0.0-3.0-1.183","true"
"748","ImagesTennis/TR92.5.png","188","test",",","image-keyboard-response","372","301750","0.0-3.0-1.184","true"
"592","ImagesSoccer/VR105.png","190","test",".","image-keyboard-response","374","302861","0.0-3.0-1.185","true"
"726","ImagesTennis/TR110.png","190","test",".","image-keyboard-response","376","304105","0.0-3.0-1.186","true"
"1758","ImagesSoccer/VL100.png","188","test",".","image-keyboard-response","378","306382","0.0-3.0-1.187","false"
"835","ImagesDirect/VL95.png","190","test",".","image-keyboard-response","380","307729","0.0-3.0-1.188","true"
"918","ImagesDirect/VL97.5.png","188","test",".","image-keyboard-response","382","309161","0.0-3.0-1.189","false"
"1318","ImagesTennis/TL102.5.png","188","test",",","image-keyboard-response","384","310999","0.0-3.0-1.190","true"
"1131","ImagesDirect/VL92.5.png","190","test",".","image-keyboard-response","386","312648","0.0-3.0-1.191","true"
"613","ImagesSoccer/VL102.5.png","188","test",",","image-keyboard-response","388","313774","0.0-3.0-1.192","true"
"2540","ImagesDirect/VL100.png","188","test",".","image-keyboard-response","390","316832","0.0-3.0-1.193","false"
"599","ImagesTennis/TL90.png","190","test",".","image-keyboard-response","392","317953","0.0-3.0-1.194","true"
"1300","ImagesTennis/TL107.5.png","188","test",",","image-keyboard-response","394","319766","0.0-3.0-1.195","true"
"667","ImagesTennis/TL110.png","188","test",",","image-keyboard-response","396","320946","0.0-3.0-1.196","true"
"645","ImagesSoccer/VL90.png","190","test",".","image-keyboard-response","398","322110","0.0-3.0-1.197","true"
"596","ImagesDirect/VL110.png","188","test",",","image-keyboard-response","400","323212","0.0-3.0-1.198","true"
"723","ImagesSoccer/VL95.png","190","test",".","image-keyboard-response","402","324453","0.0-3.0-1.199","true"
"565","ImagesDirect/VL107.5.png","188","test",",","image-keyboard-response","404","325538","0.0-3.0-1.200","true"
"1061","ImagesSoccer/VL105.png","188","test",",","image-keyboard-response","406","327111","0.0-3.0-1.201","true"
"836","ImagesTennis/TR100.png","190","test",".","image-keyboard-response","408","328454","0.0-3.0-1.202","true"
"788","ImagesSoccer/VR90.png","188","test",",","image-keyboard-response","410","329759","0.0-3.0-1.203","true"
"816","ImagesTennis/TL95.png","190","test",".","image-keyboard-response","412","331096","0.0-3.0-1.204","true"
"712","ImagesSoccer/VR107.5.png","190","test",".","image-keyboard-response","414","332319","0.0-3.0-1.205","true"
"678","ImagesTennis/TR90.png","188","test",",","image-keyboard-response","416","333502","0.0-3.0-1.206","true"
"1567","ImagesDirect/VL102.5.png","188","test",",","image-keyboard-response","418","335581","0.0-3.0-1.207","true"
"657","ImagesTennis/TR105.png","190","test",".","image-keyboard-response","420","336756","0.0-3.0-1.208","true"
"642","ImagesDirect/VR107.5.png","190","test",".","image-keyboard-response","422","337916","0.0-3.0-1.209","true"
"1815","ImagesSoccer/VR92.5.png","188","test",",","image-keyboard-response","424","340243","0.0-3.0-1.210","true"
"651","ImagesDirect/VL90.png","190","test",".","image-keyboard-response","426","341412","0.0-3.0-1.211","true"
"594","ImagesDirect/VR110.png","190","test",".","image-keyboard-response","428","342521","0.0-3.0-1.212","true"
"537","ImagesDirect/VR100.png","190","test",".","image-keyboard-response","430","343578","0.0-3.0-1.213","true"
"567","ImagesDirect/VL105.png","188","test",",","image-keyboard-response","432","344663","0.0-3.0-1.214","true"
"1702","ImagesDirect/VR90.png","188","test",",","image-keyboard-response","434","346884","0.0-3.0-1.215","true"
"565","ImagesSoccer/VR110.png","190","test",".","image-keyboard-response","436","347956","0.0-3.0-1.216","true"
"580","ImagesSoccer/VL102.5.png","188","test",",","image-keyboard-response","438","349043","0.0-3.0-1.217","true"
"684","ImagesSoccer/VL90.png","190","test",".","image-keyboard-response","440","350238","0.0-3.0-1.218","true"
"1456","ImagesSoccer/VR90.png","188","test",",","image-keyboard-response","442","352211","0.0-3.0-1.219","true"
"640","ImagesTennis/TL92.5.png","190","test",".","image-keyboard-response","444","353358","0.0-3.0-1.220","true"
"518","ImagesDirect/VL90.png","188","test",".","image-keyboard-response","446","354392","0.0-3.0-1.221","false"
"2276","ImagesTennis/TR97.5.png","188","test",",","image-keyboard-response","448","357186","0.0-3.0-1.222","true"
"585","ImagesTennis/TR95.png","188","test",",","image-keyboard-response","450","358290","0.0-3.0-1.223","true"
"1254","ImagesDirect/VR92.5.png","188","test",",","image-keyboard-response","452","360058","0.0-3.0-1.224","true"
"1049","ImagesTennis/TL100.png","190","test",".","image-keyboard-response","454","361619","0.0-3.0-1.225","true"
"878","ImagesTennis/TR107.5.png","190","test",".","image-keyboard-response","456","363016","0.0-3.0-1.226","true"
"723","ImagesDirect/VR100.png","190","test",".","image-keyboard-response","458","364257","0.0-3.0-1.227","true"
"762","ImagesTennis/TR92.5.png","188","test",",","image-keyboard-response","460","365537","0.0-3.0-1.228","true"
"718","ImagesSoccer/VL110.png","188","test",",","image-keyboard-response","462","366773","0.0-3.0-1.229","true"
"674","ImagesTennis/TR102.5.png","190","test",".","image-keyboard-response","464","367964","0.0-3.0-1.230","true"
"909","ImagesDirect/VL105.png","188","test",",","image-keyboard-response","466","369392","0.0-3.0-1.231","true"
"596","ImagesTennis/TR110.png","190","test",".","image-keyboard-response","468","370507","0.0-3.0-1.232","true"
"1311","ImagesSoccer/VR92.5.png","188","test",",","image-keyboard-response","470","372332","0.0-3.0-1.233","true"
"910","ImagesTennis/TL110.png","188","test",",","image-keyboard-response","472","373748","0.0-3.0-1.234","true"
"1086","ImagesSoccer/VL107.5.png","188","test",",","image-keyboard-response","474","375355","0.0-3.0-1.235","true"
"954","ImagesDirect/VR90.png","188","test",",","image-keyboard-response","476","376822","0.0-3.0-1.236","true"
"1412","ImagesDirect/VL95.png","190","test",".","image-keyboard-response","478","378745","0.0-3.0-1.237","true"
"792","ImagesDirect/VL97.5.png","188","test",".","image-keyboard-response","480","380059","0.0-3.0-1.238","false"
"718","ImagesSoccer/VL92.5.png","190","test",".","image-keyboard-response","482","381296","0.0-3.0-1.239","true"
"2112","ImagesDirect/VL102.5.png","188","test",",","image-keyboard-response","484","383924","0.0-3.0-1.240","true"
"1073","ImagesSoccer/VR97.5.png","190","test",",","image-keyboard-response","486","385517","0.0-3.0-1.241","false"
"769","ImagesDirect/VR102.5.png","190","test",".","image-keyboard-response","488","386804","0.0-3.0-1.242","true"
"790","ImagesTennis/TL107.5.png","188","test",",","image-keyboard-response","490","388107","0.0-3.0-1.243","true"
"631","ImagesTennis/TL90.png","190","test",".","image-keyboard-response","492","389256","0.0-3.0-1.244","true"
"1579","ImagesSoccer/VL95.png","190","test",".","image-keyboard-response","494","391354","0.0-3.0-1.245","true"
"615","ImagesTennis/TL95.png","190","test",".","image-keyboard-response","496","392489","0.0-3.0-1.246","true"
"573","ImagesDirect/VL110.png","188","test",",","image-keyboard-response","498","393573","0.0-3.0-1.247","true"
"1076","ImagesDirect/VR95.png","190","test",",","image-keyboard-response","500","395166","0.0-3.0-1.248","false"
"1067","ImagesSoccer/VR100.png","188","test",".","image-keyboard-response","502","396752","0.0-3.0-1.249","false"
"717","ImagesSoccer/VR95.png","188","test",",","image-keyboard-response","504","397984","0.0-3.0-1.250","true"
"588","ImagesSoccer/VR105.png","190","test",".","image-keyboard-response","506","399090","0.0-3.0-1.251","true"
"626","ImagesTennis/TL102.5.png","188","test",",","image-keyboard-response","508","400223","0.0-3.0-1.252","true"
"570","ImagesDirect/VR110.png","190","test",".","image-keyboard-response","510","401311","0.0-3.0-1.253","true"
"1165","ImagesDirect/VR97.5.png","188","test",",","image-keyboard-response","512","402994","0.0-3.0-1.254","true"
"680","ImagesSoccer/VL100.png","188","test",".","image-keyboard-response","514","404192","0.0-3.0-1.255","false"
"608","ImagesDirect/VR107.5.png","190","test",".","image-keyboard-response","516","405319","0.0-3.0-1.256","true"
"545","ImagesSoccer/VR107.5.png","190","test",".","image-keyboard-response","518","406382","0.0-3.0-1.257","true"
"1218","ImagesTennis/TL97.5.png","190","test",".","image-keyboard-response","520","408112","0.0-3.0-1.258","true"
"591","ImagesDirect/VR105.png","190","test",".","image-keyboard-response","522","409222","0.0-3.0-1.259","true"
"702","ImagesDirect/VL100.png","188","test",".","image-keyboard-response","524","410440","0.0-3.0-1.260","false"
"2005","ImagesSoccer/VL97.5.png","188","test",".","image-keyboard-response","526","412963","0.0-3.0-1.261","false"
"650","ImagesTennis/TR100.png","190","test",".","image-keyboard-response","528","414124","0.0-3.0-1.262","true"
"653","ImagesTennis/TR90.png","188","test",",","image-keyboard-response","530","415286","0.0-3.0-1.263","true"
"649","ImagesDirect/VL92.5.png","190","test",".","image-keyboard-response","532","416460","0.0-3.0-1.264","true"
"757","ImagesTennis/TL105.png","188","test",",","image-keyboard-response","534","417735","0.0-3.0-1.265","true"
"571","ImagesSoccer/VR102.5.png","190","test",".","image-keyboard-response","536","418810","0.0-3.0-1.266","true"
"547","ImagesDirect/VL107.5.png","188","test",",","image-keyboard-response","538","419861","0.0-3.0-1.267","true"
"615","ImagesSoccer/VL105.png","188","test",",","image-keyboard-response","540","420994","0.0-3.0-1.268","true"
"633","ImagesTennis/TR105.png","190","test",".","image-keyboard-response","542","422145","0.0-3.0-1.269","true"
"1128","ImagesCoins/10L110.png","188","test",",","image-keyboard-response","544","423783","0.0-4.0-1.0","true"
"1793","ImagesCoins/10L95.png","190","test",".","image-keyboard-response","546","426093","0.0-4.0-1.1","true"
"1931","ImagesCoins/10R105.png","190","test",".","image-keyboard-response","548","428535","0.0-4.0-1.2","true"
"1098","ImagesCoins/10R102.5.png","190","test",".","image-keyboard-response","550","430151","0.0-4.0-1.3","true"
"1720","ImagesCoins/10R95.png","190","test",",","image-keyboard-response","552","432383","0.0-4.0-1.4","false"
"2069","ImagesCoins/10R92.5.png","190","test",",","image-keyboard-response","554","434957","0.0-4.0-1.5","false"
"1418","ImagesCoins/10R100.png","190","test",".","image-keyboard-response","556","436883","0.0-4.0-1.6","true"
"1868","ImagesCoins/10L97.5.png","190","test",".","image-keyboard-response","558","439268","0.0-4.0-1.7","true"
"807","ImagesCoins/10L92.5.png","190","test",".","image-keyboard-response","560","440595","0.0-4.0-1.8","true"
"2414","ImagesCoins/10R90.png","188","test",",","image-keyboard-response","562","443527","0.0-4.0-1.9","true"
"1459","ImagesCoins/10L100.png","190","test",".","image-keyboard-response","564","445498","0.0-4.0-1.10","true"
"1319","ImagesCoins/10R97.5.png","190","test",",","image-keyboard-response","566","447322","0.0-4.0-1.11","false"
"816","ImagesCoins/10R107.5.png","190","test",".","image-keyboard-response","568","448644","0.0-4.0-1.12","true"
"2907","ImagesCoins/10L102.5.png","188","test",",","image-keyboard-response","570","452070","0.0-4.0-1.13","true"
"1018","ImagesCoins/10L105.png","188","test",",","image-keyboard-response","572","453610","0.0-4.0-1.14","true"
"987","ImagesCoins/10R110.png","190","test",".","image-keyboard-response","574","455111","0.0-4.0-1.15","true"
"1048","ImagesCoins/10L90.png","190","test",".","image-keyboard-response","576","456665","0.0-4.0-1.16","true"
"1323","ImagesCoins/10L107.5.png","188","test",",","image-keyboard-response","578","458501","0.0-4.0-1.17","true"
"1227","ImagesCoins/10L102.5.png","188","test",",","image-keyboard-response","580","460248","0.0-4.0-1.18","true"
"799","ImagesCoins/10R97.5.png","190","test",",","image-keyboard-response","582","461566","0.0-4.0-1.19","false"
"995","ImagesCoins/10L90.png","190","test",".","image-keyboard-response","584","463075","0.0-4.0-1.20","true"
"730","ImagesCoins/10L95.png","190","test",".","image-keyboard-response","586","464315","0.0-4.0-1.21","true"
"809","ImagesCoins/10L105.png","188","test",",","image-keyboard-response","588","465636","0.0-4.0-1.22","true"
"771","ImagesCoins/10L92.5.png","190","test",".","image-keyboard-response","590","466932","0.0-4.0-1.23","true"
"844","ImagesCoins/10R102.5.png","190","test",".","image-keyboard-response","592","468291","0.0-4.0-1.24","true"
"841","ImagesCoins/10L100.png","188","test",".","image-keyboard-response","594","469648","0.0-4.0-1.25","false"
"1442","ImagesCoins/10R100.png","190","test",".","image-keyboard-response","596","471612","0.0-4.0-1.26","true"
"1356","ImagesCoins/10L97.5.png","190","test",".","image-keyboard-response","598","473486","0.0-4.0-1.27","true"
"874","ImagesCoins/10R110.png","190","test",".","image-keyboard-response","600","474875","0.0-4.0-1.28","true"
"682","ImagesCoins/10L110.png","188","test",",","image-keyboard-response","602","476066","0.0-4.0-1.29","true"
"633","ImagesCoins/10R105.png","190","test",".","image-keyboard-response","604","477218","0.0-4.0-1.30","true"
"2007","ImagesCoins/10R92.5.png","188","test",",","image-keyboard-response","606","479732","0.0-4.0-1.31","true"
"1166","ImagesCoins/10R90.png","190","test",",","image-keyboard-response","608","481419","0.0-4.0-1.32","false"
"797","ImagesCoins/10L107.5.png","188","test",",","image-keyboard-response","610","482735","0.0-4.0-1.33","true"
"558","ImagesCoins/10R107.5.png","190","test",".","image-keyboard-response","612","483810","0.0-4.0-1.34","true"
"1076","ImagesCoins/10R95.png","190","test",",","image-keyboard-response","614","485405","0.0-4.0-1.35","false"
"710","ImagesCoins/10R107.5.png","190","test",".","image-keyboard-response","616","486622","0.0-4.0-1.36","true"
"548","ImagesCoins/10R95.png","190","test",",","image-keyboard-response","618","487676","0.0-4.0-1.37","false"
"697","ImagesCoins/10L102.5.png","188","test",",","image-keyboard-response","620","488891","0.0-4.0-1.38","true"
"598","ImagesCoins/10R97.5.png","190","test",",","image-keyboard-response","622","490000","0.0-4.0-1.39","false"
"541","ImagesCoins/10L110.png","188","test",",","image-keyboard-response","624","491059","0.0-4.0-1.40","true"
"578","ImagesCoins/10R102.5.png","190","test",".","image-keyboard-response","626","492150","0.0-4.0-1.41","true"
"693","ImagesCoins/10L100.png","190","test",".","image-keyboard-response","628","493361","0.0-4.0-1.42","true"
"655","ImagesCoins/10L95.png","190","test",".","image-keyboard-response","630","494534","0.0-4.0-1.43","true"
"842","ImagesCoins/10L97.5.png","188","test",".","image-keyboard-response","632","495887","0.0-4.0-1.44","false"
"667","ImagesCoins/10L92.5.png","190","test",".","image-keyboard-response","634","497075","0.0-4.0-1.45","true"
"678","ImagesCoins/10R90.png","188","test",",","image-keyboard-response","636","498262","0.0-4.0-1.46","true"
"989","ImagesCoins/10R100.png","190","test",".","image-keyboard-response","638","499769","0.0-4.0-1.47","true"
"704","ImagesCoins/10R92.5.png","190","test",",","image-keyboard-response","640","500994","0.0-4.0-1.48","false"
"1795","ImagesCoins/10L105.png","188","test",",","image-keyboard-response","642","503307","0.0-4.0-1.49","true"
"625","ImagesCoins/10R110.png","190","test",".","image-keyboard-response","644","504452","0.0-4.0-1.50","true"
"587","ImagesCoins/10R105.png","190","test",".","image-keyboard-response","646","505551","0.0-4.0-1.51","true"
"828","ImagesCoins/10L90.png","190","test",".","image-keyboard-response","648","506898","0.0-4.0-1.52","true"
"790","ImagesCoins/10L107.5.png","188","test",",","image-keyboard-response","650","508209","0.0-4.0-1.53","true"
"1431","ImagesCoins/10R95.png","190","test",",","image-keyboard-response","652","510149","0.0-4.0-1.54","false"
"1764","ImagesCoins/10L107.5.png","188","test",",","image-keyboard-response","654","512425","0.0-4.0-1.55","true"
"656","ImagesCoins/10L92.5.png","190","test",".","image-keyboard-response","656","513589","0.0-4.0-1.56","true"
"647","ImagesCoins/10L97.5.png","188","test",".","image-keyboard-response","658","514754","0.0-4.0-1.57","false"
"678","ImagesCoins/10R92.5.png","188","test",",","image-keyboard-response","660","515948","0.0-4.0-1.58","true"
"660","ImagesCoins/10L110.png","188","test",",","image-keyboard-response","662","517128","0.0-4.0-1.59","true"
"668","ImagesCoins/10L105.png","190","test",",","image-keyboard-response","664","518301","0.0-4.0-1.60","false"
"790","ImagesCoins/10R102.5.png","190","test",".","image-keyboard-response","666","519608","0.0-4.0-1.61","true"
"537","ImagesCoins/10R110.png","190","test",".","image-keyboard-response","668","520664","0.0-4.0-1.62","true"
"617","ImagesCoins/10R105.png","190","test",".","image-keyboard-response","670","521789","0.0-4.0-1.63","true"
"615","ImagesCoins/10L102.5.png","188","test",",","image-keyboard-response","672","522914","0.0-4.0-1.64","true"
"740","ImagesCoins/10R107.5.png","190","test",".","image-keyboard-response","674","524176","0.0-4.0-1.65","true"
"567","ImagesCoins/10L95.png","190","test",".","image-keyboard-response","676","525261","0.0-4.0-1.66","true"
"1056","ImagesCoins/10R97.5.png","190","test",",","image-keyboard-response","678","526834","0.0-4.0-1.67","false"
"639","ImagesCoins/10L90.png","190","test",".","image-keyboard-response","680","527994","0.0-4.0-1.68","true"
"550","ImagesCoins/10R100.png","190","test",".","image-keyboard-response","682","529062","0.0-4.0-1.69","true"
"753","ImagesCoins/10L100.png","188","test",".","image-keyboard-response","684","530321","0.0-4.0-1.70","false"
"984","ImagesCoins/10R90.png","188","test",",","image-keyboard-response","686","531811","0.0-4.0-1.71","true"
"661","ImagesCoins/10L100.png","190","test",".","image-keyboard-response","688","532977","0.0-4.0-1.72","true"
"599","ImagesCoins/10L92.5.png","190","test",".","image-keyboard-response","690","534087","0.0-4.0-1.73","true"
"1334","ImagesCoins/10R97.5.png","190","test",",","image-keyboard-response","692","535938","0.0-4.0-1.74","false"
"2154","ImagesCoins/10R92.5.png","188","test",",","image-keyboard-response","694","538603","0.0-4.0-1.75","true"
"564","ImagesCoins/10L95.png","190","test",".","image-keyboard-response","696","539676","0.0-4.0-1.76","true"
"1096","ImagesCoins/10L105.png","188","test",",","image-keyboard-response","698","541294","0.0-4.0-1.77","true"
"1096","ImagesCoins/10R95.png","190","test",",","image-keyboard-response","700","542898","0.0-4.0-1.78","false"
"977","ImagesCoins/10L107.5.png","188","test",",","image-keyboard-response","702","544396","0.0-4.0-1.79","true"
"1339","ImagesCoins/10R90.png","188","test",",","image-keyboard-response","704","546254","0.0-4.0-1.80","true"
"747","ImagesCoins/10R110.png","190","test",".","image-keyboard-response","706","547518","0.0-4.0-1.81","true"
"555","ImagesCoins/10R105.png","190","test",".","image-keyboard-response","708","548592","0.0-4.0-1.82","true"
"538","ImagesCoins/10R107.5.png","190","test",".","image-keyboard-response","710","549651","0.0-4.0-1.83","true"
"890","ImagesCoins/10L90.png","190","test",".","image-keyboard-response","712","551056","0.0-4.0-1.84","true"
"862","ImagesCoins/10L97.5.png","188","test",".","image-keyboard-response","714","552437","0.0-4.0-1.85","false"
"645","ImagesCoins/10L110.png","188","test",",","image-keyboard-response","716","553599","0.0-4.0-1.86","true"
"857","ImagesCoins/10L102.5.png","190","test",",","image-keyboard-response","718","554960","0.0-4.0-1.87","false"
"975","ImagesCoins/10R100.png","190","test",".","image-keyboard-response","720","556449","0.0-4.0-1.88","true"
"765","ImagesCoins/10R102.5.png","190","test",".","image-keyboard-response","722","557734","0.0-4.0-1.89","true"
