"rt","stimulus","key_press","test_part","correct_response","trial_type","trial_index","time_elapsed","internal_node_id","correct"
"13247","ImagesCoins/10R100.png","190","test",".","image-keyboard-response","4","64345","0.0-3.0-1.0","true"
"4381","ImagesCoins/10R90.png","188","test",",","image-keyboard-response","6","69243","0.0-3.0-1.1","true"
"5097","ImagesCoins/10R105.png","190","test",".","image-keyboard-response","8","74868","0.0-3.0-1.2","true"
"4106","ImagesCoins/10L102.5.png","188","test",",","image-keyboard-response","10","79483","0.0-3.0-1.3","true"
"1872","ImagesCoins/10R107.5.png","190","test",".","image-keyboard-response","12","81865","0.0-3.0-1.4","true"
"2521","ImagesCoins/10L100.png","188","test",".","image-keyboard-response","14","84915","0.0-3.0-1.5","false"
"1260","ImagesCoins/10L107.5.png","188","test",",","image-keyboard-response","16","86699","0.0-3.0-1.6","true"
"2285","ImagesCoins/10L97.5.png","188","test",".","image-keyboard-response","18","89496","0.0-3.0-1.7","false"
"4901","ImagesCoins/10R97.5.png","188","test",",","image-keyboard-response","20","94904","0.0-3.0-1.8","true"
"6071","ImagesCoins/10R102.5.png","190","test",".","image-keyboard-response","22","101512","0.0-3.0-1.9","true"
"2596","ImagesCoins/10L92.5.png","190","test",".","image-keyboard-response","24","104629","0.0-3.0-1.10","true"
"1434","ImagesCoins/10L110.png","188","test",",","image-keyboard-response","26","106580","0.0-3.0-1.11","true"
"1156","ImagesCoins/10R110.png","190","test",".","image-keyboard-response","28","108256","0.0-3.0-1.12","true"
"1796","ImagesCoins/10R92.5.png","188","test",",","image-keyboard-response","30","110565","0.0-3.0-1.13","true"
"2233","ImagesCoins/10L95.png","190","test",".","image-keyboard-response","32","113318","0.0-3.0-1.14","true"
"3489","ImagesCoins/10R95.png","188","test",",","image-keyboard-response","34","117327","0.0-3.0-1.15","true"
"1345","ImagesCoins/10L105.png","188","test",",","image-keyboard-response","36","119187","0.0-3.0-1.16","true"
"1197","ImagesCoins/10L90.png","190","test",".","image-keyboard-response","38","120900","0.0-3.0-1.17","true"
"1234","ImagesCoins/10R110.png","190","test",".","image-keyboard-response","40","122644","0.0-3.0-1.18","true"
"1061","ImagesCoins/10R92.5.png","188","test",",","image-keyboard-response","42","124231","0.0-3.0-1.19","true"
"1147","ImagesCoins/10R107.5.png","190","test",".","image-keyboard-response","44","125911","0.0-3.0-1.20","true"
"980","ImagesCoins/10L102.5.png","188","test",",","image-keyboard-response","46","127416","0.0-3.0-1.21","true"
"897","ImagesCoins/10L105.png","188","test",",","image-keyboard-response","48","128819","0.0-3.0-1.22","true"
"997","ImagesCoins/10R105.png","190","test",".","image-keyboard-response","50","130334","0.0-3.0-1.23","true"
"677","ImagesCoins/10L110.png","188","test",",","image-keyboard-response","52","131532","0.0-3.0-1.24","true"
"1041","ImagesCoins/10L90.png","190","test",".","image-keyboard-response","54","133086","0.0-3.0-1.25","true"
"1540","ImagesCoins/10L95.png","190","test",".","image-keyboard-response","56","135159","0.0-3.0-1.26","true"
"2874","ImagesCoins/10R102.5.png","190","test",".","image-keyboard-response","58","138561","0.0-3.0-1.27","true"
"627","ImagesCoins/10L107.5.png","188","test",",","image-keyboard-response","60","139712","0.0-3.0-1.28","true"
"1308","ImagesCoins/10R97.5.png","188","test",",","image-keyboard-response","62","141545","0.0-3.0-1.29","true"
"681","ImagesCoins/10L97.5.png","188","test",".","image-keyboard-response","64","142766","0.0-3.0-1.30","false"
"797","ImagesCoins/10R90.png","188","test",",","image-keyboard-response","66","144066","0.0-3.0-1.31","true"
"1361","ImagesCoins/10L100.png","188","test",".","image-keyboard-response","68","145946","0.0-3.0-1.32","false"
"899","ImagesCoins/10L92.5.png","190","test",".","image-keyboard-response","70","147364","0.0-3.0-1.33","true"
"1141","ImagesCoins/10R100.png","188","test",".","image-keyboard-response","72","149024","0.0-3.0-1.34","false"
"1289","ImagesCoins/10R95.png","188","test",",","image-keyboard-response","74","150827","0.0-3.0-1.35","true"
"1370","ImagesCoins/10R107.5.png","190","test",".","image-keyboard-response","76","152703","0.0-3.0-1.36","true"
"773","ImagesCoins/10L97.5.png","188","test",".","image-keyboard-response","78","153994","0.0-3.0-1.37","false"
"602","ImagesCoins/10L107.5.png","188","test",",","image-keyboard-response","80","155098","0.0-3.0-1.38","true"
"953","ImagesCoins/10R110.png","190","test",".","image-keyboard-response","82","156560","0.0-3.0-1.39","true"
"1005","ImagesCoins/10L90.png","190","test",".","image-keyboard-response","84","158080","0.0-3.0-1.40","true"
"800","ImagesCoins/10L105.png","188","test",",","image-keyboard-response","86","159386","0.0-3.0-1.41","true"
"1007","ImagesCoins/10R90.png","188","test",",","image-keyboard-response","88","160910","0.0-3.0-1.42","true"
"800","ImagesCoins/10L110.png","188","test",",","image-keyboard-response","90","162238","0.0-3.0-1.43","true"
"1122","ImagesCoins/10L100.png","188","test",".","image-keyboard-response","92","163877","0.0-3.0-1.44","false"
"1096","ImagesCoins/10R97.5.png","188","test",",","image-keyboard-response","94","165491","0.0-3.0-1.45","true"
"1098","ImagesCoins/10R92.5.png","188","test",",","image-keyboard-response","96","167108","0.0-3.0-1.46","true"
"1664","ImagesCoins/10R95.png","188","test",",","image-keyboard-response","98","169301","0.0-3.0-1.47","true"
"1482","ImagesCoins/10R100.png","190","test",".","image-keyboard-response","100","171314","0.0-3.0-1.48","true"
"1310","ImagesCoins/10R105.png","190","test",".","image-keyboard-response","102","173134","0.0-3.0-1.49","true"
"1308","ImagesCoins/10L92.5.png","190","test",".","image-keyboard-response","104","174970","0.0-3.0-1.50","true"
"842","ImagesCoins/10L102.5.png","188","test",",","image-keyboard-response","106","176336","0.0-3.0-1.51","true"
"1403","ImagesCoins/10L95.png","190","test",".","image-keyboard-response","108","178267","0.0-3.0-1.52","true"
"1199","ImagesCoins/10R102.5.png","190","test",".","image-keyboard-response","110","180001","0.0-3.0-1.53","true"
"2014","ImagesCoins/10R90.png","188","test",",","image-keyboard-response","112","182548","0.0-3.0-1.54","true"
"2906","ImagesCoins/10L97.5.png","190","test",".","image-keyboard-response","114","185975","0.0-3.0-1.55","true"
"1494","ImagesCoins/10R105.png","190","test",".","image-keyboard-response","116","187983","0.0-3.0-1.56","true"
"1358","ImagesCoins/10R92.5.png","188","test",",","image-keyboard-response","118","189855","0.0-3.0-1.57","true"
"719","ImagesCoins/10L100.png","188","test",".","image-keyboard-response","120","191080","0.0-3.0-1.58","false"
"900","ImagesCoins/10L90.png","190","test",".","image-keyboard-response","122","192505","0.0-3.0-1.59","true"
"882","ImagesCoins/10R110.png","190","test",".","image-keyboard-response","124","193904","0.0-3.0-1.60","true"
"1379","ImagesCoins/10L92.5.png","190","test",".","image-keyboard-response","126","195791","0.0-3.0-1.61","true"
"2032","ImagesCoins/10R97.5.png","190","test",",","image-keyboard-response","128","198335","0.0-3.0-1.62","false"
"1218","ImagesCoins/10R107.5.png","190","test",".","image-keyboard-response","130","200075","0.0-3.0-1.63","true"
"942","ImagesCoins/10R100.png","188","test",".","image-keyboard-response","132","201559","0.0-3.0-1.64","false"
"568","ImagesCoins/10L110.png","188","test",",","image-keyboard-response","134","202657","0.0-3.0-1.65","true"
"754","ImagesCoins/10L95.png","190","test",".","image-keyboard-response","136","203933","0.0-3.0-1.66","true"
"961","ImagesCoins/10L102.5.png","188","test",",","image-keyboard-response","138","205413","0.0-3.0-1.67","true"
"587","ImagesCoins/10L105.png","188","test",",","image-keyboard-response","140","206517","0.0-3.0-1.68","true"
"690","ImagesCoins/10R102.5.png","190","test",".","image-keyboard-response","142","207731","0.0-3.0-1.69","true"
"1119","ImagesCoins/10L107.5.png","188","test",",","image-keyboard-response","144","209379","0.0-3.0-1.70","true"
"1105","ImagesCoins/10R95.png","188","test",",","image-keyboard-response","146","210992","0.0-3.0-1.71","true"
"936","ImagesCoins/10R90.png","188","test",",","image-keyboard-response","148","212442","0.0-3.0-1.72","true"
"758","ImagesCoins/10R105.png","190","test",".","image-keyboard-response","150","213735","0.0-3.0-1.73","true"
"773","ImagesCoins/10R102.5.png","190","test",".","image-keyboard-response","152","215035","0.0-3.0-1.74","true"
"1195","ImagesCoins/10R100.png","190","test",".","image-keyboard-response","154","216751","0.0-3.0-1.75","true"
"1219","ImagesCoins/10L92.5.png","190","test",".","image-keyboard-response","156","218497","0.0-3.0-1.76","true"
"799","ImagesCoins/10L100.png","188","test",".","image-keyboard-response","158","219807","0.0-3.0-1.77","false"
"672","ImagesCoins/10L107.5.png","188","test",",","image-keyboard-response","160","221011","0.0-3.0-1.78","true"
"1045","ImagesCoins/10R95.png","188","test",",","image-keyboard-response","162","222593","0.0-3.0-1.79","true"
"758","ImagesCoins/10R110.png","190","test",".","image-keyboard-response","164","223875","0.0-3.0-1.80","true"
"1277","ImagesCoins/10L90.png","190","test",".","image-keyboard-response","166","225673","0.0-3.0-1.81","true"
"638","ImagesCoins/10L110.png","188","test",",","image-keyboard-response","168","226835","0.0-3.0-1.82","true"
"595","ImagesCoins/10L105.png","188","test",",","image-keyboard-response","170","227964","0.0-3.0-1.83","true"
"1028","ImagesCoins/10L97.5.png","188","test",".","image-keyboard-response","172","229523","0.0-3.0-1.84","false"
"1894","ImagesCoins/10R97.5.png","190","test",",","image-keyboard-response","174","231945","0.0-3.0-1.85","false"
"785","ImagesCoins/10R92.5.png","188","test",",","image-keyboard-response","176","233247","0.0-3.0-1.86","true"
"802","ImagesCoins/10L95.png","190","test",".","image-keyboard-response","178","234573","0.0-3.0-1.87","true"
"874","ImagesCoins/10R107.5.png","190","test",".","image-keyboard-response","180","235953","0.0-3.0-1.88","true"
"658","ImagesCoins/10L102.5.png","188","test",",","image-keyboard-response","182","237130","0.0-3.0-1.89","true"
"3736","ImagesTennis/TR100.png","188","test",".","image-keyboard-response","184","241384","0.0-4.0-1.0","false"
"1253","ImagesDirect/VL110.png","188","test",",","image-keyboard-response","186","243163","0.0-4.0-1.1","true"
"1004","ImagesTennis/TR90.png","188","test",",","image-keyboard-response","188","244693","0.0-4.0-1.2","true"
"1020","ImagesDirect/VL105.png","188","test",",","image-keyboard-response","190","246231","0.0-4.0-1.3","true"
"666","ImagesSoccer/VR102.5.png","190","test",".","image-keyboard-response","192","247430","0.0-4.0-1.4","true"
"727","ImagesDirect/VR105.png","190","test",".","image-keyboard-response","194","248679","0.0-4.0-1.5","true"
"633","ImagesSoccer/VR97.5.png","190","test",",","image-keyboard-response","196","249834","0.0-4.0-1.6","false"
"3402","ImagesTennis/TL100.png","190","test",".","image-keyboard-response","198","253758","0.0-4.0-1.7","true"
"1194","ImagesDirect/VL107.5.png","188","test",",","image-keyboard-response","200","255467","0.0-4.0-1.8","true"
"732","ImagesDirect/VR97.5.png","190","test",",","image-keyboard-response","202","256716","0.0-4.0-1.9","false"
"748","ImagesSoccer/VR110.png","190","test",".","image-keyboard-response","204","257991","0.0-4.0-1.10","true"
"1130","ImagesSoccer/VL105.png","188","test",",","image-keyboard-response","206","259640","0.0-4.0-1.11","true"
"850","ImagesSoccer/VL95.png","190","test",".","image-keyboard-response","208","261008","0.0-4.0-1.12","true"
"1388","ImagesTennis/TR95.png","188","test",",","image-keyboard-response","210","262917","0.0-4.0-1.13","true"
"869","ImagesTennis/TR107.5.png","190","test",".","image-keyboard-response","212","264293","0.0-4.0-1.14","true"
"810","ImagesTennis/TL90.png","190","test",".","image-keyboard-response","214","265623","0.0-4.0-1.15","true"
"1454","ImagesSoccer/VL97.5.png","188","test",".","image-keyboard-response","216","267590","0.0-4.0-1.16","false"
"1422","ImagesDirect/VR90.png","188","test",",","image-keyboard-response","218","269532","0.0-4.0-1.17","true"
"886","ImagesTennis/TR102.5.png","190","test",".","image-keyboard-response","220","270946","0.0-4.0-1.18","true"
"880","ImagesDirect/VR102.5.png","190","test",".","image-keyboard-response","222","272342","0.0-4.0-1.19","true"
"5152","ImagesTennis/TL105.png","188","test",",","image-keyboard-response","224","278018","0.0-4.0-1.20","true"
"1763","ImagesSoccer/VL107.5.png","188","test",",","image-keyboard-response","226","280297","0.0-4.0-1.21","true"
"868","ImagesDirect/VL90.png","190","test",".","image-keyboard-response","228","281683","0.0-4.0-1.22","true"
"1108","ImagesTennis/TR105.png","190","test",".","image-keyboard-response","230","283311","0.0-4.0-1.23","true"
"1822","ImagesDirect/VL92.5.png","190","test",".","image-keyboard-response","232","285665","0.0-4.0-1.24","true"
"1080","ImagesSoccer/VR100.png","190","test",".","image-keyboard-response","234","287263","0.0-4.0-1.25","true"
"1317","ImagesTennis/TL102.5.png","190","test",",","image-keyboard-response","236","289109","0.0-4.0-1.26","false"
"838","ImagesSoccer/VL90.png","190","test",".","image-keyboard-response","238","290461","0.0-4.0-1.27","true"
"837","ImagesSoccer/VL92.5.png","190","test",".","image-keyboard-response","240","291822","0.0-4.0-1.28","true"
"950","ImagesTennis/TL97.5.png","190","test",".","image-keyboard-response","242","293280","0.0-4.0-1.29","true"
"2239","ImagesSoccer/VR90.png","188","test",",","image-keyboard-response","244","296045","0.0-4.0-1.30","true"
"1707","ImagesSoccer/VR92.5.png","188","test",",","image-keyboard-response","246","298282","0.0-4.0-1.31","true"
"1093","ImagesDirect/VL97.5.png","188","test",".","image-keyboard-response","248","299908","0.0-4.0-1.32","false"
"1290","ImagesTennis/TR110.png","190","test",".","image-keyboard-response","250","301710","0.0-4.0-1.33","true"
"1031","ImagesTennis/TL110.png","188","test",",","image-keyboard-response","252","303256","0.0-4.0-1.34","true"
"790","ImagesDirect/VR110.png","190","test",".","image-keyboard-response","254","304572","0.0-4.0-1.35","true"
"899","ImagesSoccer/VL100.png","188","test",".","image-keyboard-response","256","306004","0.0-4.0-1.36","false"
"713","ImagesTennis/TL92.5.png","190","test",".","image-keyboard-response","258","307248","0.0-4.0-1.37","true"
"752","ImagesSoccer/VR107.5.png","190","test",".","image-keyboard-response","260","308523","0.0-4.0-1.38","true"
"651","ImagesDirect/VR107.5.png","190","test",".","image-keyboard-response","262","309703","0.0-4.0-1.39","true"
"552","ImagesSoccer/VR105.png","190","test",".","image-keyboard-response","264","310772","0.0-4.0-1.40","true"
"863","ImagesDirect/VL102.5.png","188","test",",","image-keyboard-response","266","312158","0.0-4.0-1.41","true"
"642","ImagesSoccer/VL110.png","188","test",",","image-keyboard-response","268","313330","0.0-4.0-1.42","true"
"1958","ImagesDirect/VR95.png","188","test",",","image-keyboard-response","270","315799","0.0-4.0-1.43","true"
"1223","ImagesDirect/VL95.png","188","test",".","image-keyboard-response","272","317540","0.0-4.0-1.44","false"
"731","ImagesSoccer/VL102.5.png","188","test",",","image-keyboard-response","274","318791","0.0-4.0-1.45","true"
"770","ImagesTennis/TL95.png","190","test",".","image-keyboard-response","276","320066","0.0-4.0-1.46","true"
"793","ImagesDirect/VL100.png","188","test",".","image-keyboard-response","278","321380","0.0-4.0-1.47","false"
"871","ImagesTennis/TR92.5.png","188","test",",","image-keyboard-response","280","322770","0.0-4.0-1.48","true"
"785","ImagesDirect/VR100.png","190","test",".","image-keyboard-response","282","324091","0.0-4.0-1.49","true"
"1532","ImagesDirect/VR92.5.png","188","test",",","image-keyboard-response","284","326134","0.0-4.0-1.50","true"
"622","ImagesTennis/TL107.5.png","188","test",",","image-keyboard-response","286","327281","0.0-4.0-1.51","true"
"827","ImagesTennis/TR97.5.png","188","test",",","image-keyboard-response","288","328632","0.0-4.0-1.52","true"
"1020","ImagesSoccer/VR95.png","188","test",",","image-keyboard-response","290","330170","0.0-4.0-1.53","true"
"1364","ImagesDirect/VR90.png","188","test",",","image-keyboard-response","292","332061","0.0-4.0-1.54","true"
"1628","ImagesDirect/VL95.png","188","test",".","image-keyboard-response","294","334206","0.0-4.0-1.55","false"
"2464","ImagesDirect/VL92.5.png","190","test",".","image-keyboard-response","296","337195","0.0-4.0-1.56","true"
"2572","ImagesDirect/VL100.png","188","test",".","image-keyboard-response","298","340275","0.0-4.0-1.57","false"
"996","ImagesSoccer/VR105.png","190","test",".","image-keyboard-response","300","341784","0.0-4.0-1.58","true"
"828","ImagesDirect/VR102.5.png","190","test",".","image-keyboard-response","302","343138","0.0-4.0-1.59","true"
"915","ImagesDirect/VL97.5.png","188","test",".","image-keyboard-response","304","344562","0.0-4.0-1.60","false"
"710","ImagesDirect/VR97.5.png","190","test",",","image-keyboard-response","306","345780","0.0-4.0-1.61","false"
"1021","ImagesTennis/TL95.png","190","test",".","image-keyboard-response","308","347315","0.0-4.0-1.62","true"
"896","ImagesSoccer/VR110.png","190","test",".","image-keyboard-response","310","348719","0.0-4.0-1.63","true"
"587","ImagesDirect/VR100.png","190","test",".","image-keyboard-response","312","349825","0.0-4.0-1.64","true"
"543","ImagesDirect/VL110.png","188","test",",","image-keyboard-response","314","350886","0.0-4.0-1.65","true"
"553","ImagesSoccer/VL110.png","188","test",",","image-keyboard-response","316","351963","0.0-4.0-1.66","true"
"651","ImagesTennis/TR95.png","188","test",",","image-keyboard-response","318","353138","0.0-4.0-1.67","true"
"866","ImagesSoccer/VL100.png","188","test",".","image-keyboard-response","320","354515","0.0-4.0-1.68","false"
"770","ImagesTennis/TR100.png","188","test",".","image-keyboard-response","322","355809","0.0-4.0-1.69","false"
"816","ImagesTennis/TL105.png","188","test",",","image-keyboard-response","324","357146","0.0-4.0-1.70","true"
"1341","ImagesDirect/VR92.5.png","188","test",",","image-keyboard-response","326","359009","0.0-4.0-1.71","true"
"1038","ImagesSoccer/VR90.png","188","test",",","image-keyboard-response","328","360563","0.0-4.0-1.72","true"
"785","ImagesDirect/VR110.png","190","test",".","image-keyboard-response","330","361875","0.0-4.0-1.73","true"
"742","ImagesTennis/TL107.5.png","188","test",",","image-keyboard-response","332","363143","0.0-4.0-1.74","true"
"697","ImagesDirect/VR107.5.png","190","test",".","image-keyboard-response","334","364364","0.0-4.0-1.75","true"
"697","ImagesTennis/TR110.png","190","test",".","image-keyboard-response","336","365581","0.0-4.0-1.76","true"
"579","ImagesSoccer/VR107.5.png","190","test",".","image-keyboard-response","338","366680","0.0-4.0-1.77","true"
"1297","ImagesSoccer/VL95.png","190","test",".","image-keyboard-response","340","368485","0.0-4.0-1.78","true"
"739","ImagesDirect/VR105.png","190","test",".","image-keyboard-response","342","369739","0.0-4.0-1.79","true"
"1014","ImagesTennis/TL92.5.png","190","test",".","image-keyboard-response","344","371270","0.0-4.0-1.80","true"
"1386","ImagesSoccer/VR95.png","188","test",",","image-keyboard-response","346","373176","0.0-4.0-1.81","true"
"4493","ImagesSoccer/VR100.png","188","test",".","image-keyboard-response","348","378199","0.0-4.0-1.82","false"
"698","ImagesTennis/TR97.5.png","188","test",",","image-keyboard-response","350","379426","0.0-4.0-1.83","true"
"908","ImagesSoccer/VR97.5.png","188","test",",","image-keyboard-response","352","380850","0.0-4.0-1.84","true"
"1277","ImagesTennis/TL97.5.png","190","test",".","image-keyboard-response","354","382644","0.0-4.0-1.85","true"
"590","ImagesSoccer/VL105.png","188","test",",","image-keyboard-response","356","383754","0.0-4.0-1.86","true"
"1922","ImagesTennis/TR105.png","190","test",".","image-keyboard-response","358","386192","0.0-4.0-1.87","true"
"1579","ImagesTennis/TL100.png","190","test",".","image-keyboard-response","360","388291","0.0-4.0-1.88","true"
"548","ImagesTennis/TR90.png","188","test",",","image-keyboard-response","362","389368","0.0-4.0-1.89","true"
"597","ImagesDirect/VL107.5.png","188","test",",","image-keyboard-response","364","390497","0.0-4.0-1.90","true"
"1616","ImagesSoccer/VL92.5.png","190","test",".","image-keyboard-response","366","392641","0.0-4.0-1.91","true"
"868","ImagesTennis/TR102.5.png","190","test",".","image-keyboard-response","368","394030","0.0-4.0-1.92","true"
"686","ImagesTennis/TL110.png","188","test",",","image-keyboard-response","370","395245","0.0-4.0-1.93","true"
"1030","ImagesTennis/TR107.5.png","190","test",".","image-keyboard-response","372","396792","0.0-4.0-1.94","true"
"1120","ImagesSoccer/VL90.png","190","test",".","image-keyboard-response","374","398432","0.0-4.0-1.95","true"
"1511","ImagesSoccer/VR92.5.png","188","test",",","image-keyboard-response","376","400457","0.0-4.0-1.96","true"
"705","ImagesDirect/VL102.5.png","188","test",",","image-keyboard-response","378","401690","0.0-4.0-1.97","true"
"1782","ImagesTennis/TL102.5.png","188","test",",","image-keyboard-response","380","403996","0.0-4.0-1.98","true"
"1372","ImagesDirect/VR95.png","188","test",",","image-keyboard-response","382","405877","0.0-4.0-1.99","true"
"894","ImagesDirect/VL90.png","190","test",".","image-keyboard-response","384","407278","0.0-4.0-1.100","true"
"879","ImagesDirect/VL105.png","188","test",",","image-keyboard-response","386","408674","0.0-4.0-1.101","true"
"574","ImagesSoccer/VL102.5.png","188","test",",","image-keyboard-response","388","409770","0.0-4.0-1.102","true"
"630","ImagesSoccer/VL107.5.png","188","test",",","image-keyboard-response","390","410925","0.0-4.0-1.103","true"
"666","ImagesSoccer/VR102.5.png","190","test",".","image-keyboard-response","392","412101","0.0-4.0-1.104","true"
"901","ImagesTennis/TL90.png","190","test",".","image-keyboard-response","394","413518","0.0-4.0-1.105","true"
"762","ImagesSoccer/VL97.5.png","188","test",".","image-keyboard-response","396","414802","0.0-4.0-1.106","false"
"614","ImagesTennis/TR92.5.png","188","test",",","image-keyboard-response","398","415935","0.0-4.0-1.107","true"
"977","ImagesSoccer/VL97.5.png","188","test",".","image-keyboard-response","400","417437","0.0-4.0-1.108","false"
"982","ImagesSoccer/VL102.5.png","188","test",",","image-keyboard-response","402","418944","0.0-4.0-1.109","true"
"1767","ImagesTennis/TR102.5.png","188","test",".","image-keyboard-response","404","421237","0.0-4.0-1.110","false"
"971","ImagesDirect/VL102.5.png","188","test",",","image-keyboard-response","406","422732","0.0-4.0-1.111","true"
"650","ImagesTennis/TL97.5.png","190","test",".","image-keyboard-response","408","423898","0.0-4.0-1.112","true"
"767","ImagesDirect/VR105.png","190","test",".","image-keyboard-response","410","425183","0.0-4.0-1.113","true"
"657","ImagesSoccer/VL105.png","188","test",",","image-keyboard-response","412","426360","0.0-4.0-1.114","true"
"805","ImagesSoccer/VL92.5.png","190","test",".","image-keyboard-response","414","427691","0.0-4.0-1.115","true"
"839","ImagesDirect/VR102.5.png","190","test",".","image-keyboard-response","416","429050","0.0-4.0-1.116","true"
"647","ImagesSoccer/VR102.5.png","190","test",".","image-keyboard-response","418","430216","0.0-4.0-1.117","true"
"820","ImagesSoccer/VL95.png","190","test",".","image-keyboard-response","420","431556","0.0-4.0-1.118","true"
"617","ImagesDirect/VR107.5.png","190","test",".","image-keyboard-response","422","432694","0.0-4.0-1.119","true"
"1401","ImagesTennis/TL100.png","190","test",".","image-keyboard-response","424","434614","0.0-4.0-1.120","true"
"897","ImagesSoccer/VR105.png","190","test",".","image-keyboard-response","426","436018","0.0-4.0-1.121","true"
"1119","ImagesTennis/TL92.5.png","190","test",".","image-keyboard-response","428","437650","0.0-4.0-1.122","true"
"626","ImagesTennis/TR92.5.png","188","test",",","image-keyboard-response","430","438791","0.0-4.0-1.123","true"
"2659","ImagesDirect/VL90.png","190","test",".","image-keyboard-response","432","441974","0.0-4.0-1.124","true"
"1188","ImagesTennis/TR105.png","190","test",".","image-keyboard-response","434","443681","0.0-4.0-1.125","true"
"1244","ImagesTennis/TL105.png","188","test",",","image-keyboard-response","436","445446","0.0-4.0-1.126","true"
"1161","ImagesDirect/VR97.5.png","188","test",",","image-keyboard-response","438","447131","0.0-4.0-1.127","true"
"615","ImagesTennis/TL107.5.png","188","test",",","image-keyboard-response","440","448271","0.0-4.0-1.128","true"
"677","ImagesTennis/TL102.5.png","188","test",",","image-keyboard-response","442","449473","0.0-4.0-1.129","true"
"673","ImagesDirect/VR100.png","190","test",".","image-keyboard-response","444","450664","0.0-4.0-1.130","true"
"568","ImagesTennis/TR97.5.png","188","test",",","image-keyboard-response","446","451756","0.0-4.0-1.131","true"
"707","ImagesTennis/TL90.png","190","test",".","image-keyboard-response","448","452978","0.0-4.0-1.132","true"
"1097","ImagesDirect/VR90.png","188","test",",","image-keyboard-response","450","454605","0.0-4.0-1.133","true"
"856","ImagesSoccer/VL90.png","190","test",".","image-keyboard-response","452","455981","0.0-4.0-1.134","true"
"811","ImagesSoccer/VR110.png","190","test",".","image-keyboard-response","454","457312","0.0-4.0-1.135","true"
"784","ImagesTennis/TR110.png","190","test",".","image-keyboard-response","456","458611","0.0-4.0-1.136","true"
"1035","ImagesDirect/VL97.5.png","188","test",".","image-keyboard-response","458","460154","0.0-4.0-1.137","false"
"811","ImagesSoccer/VR92.5.png","188","test",",","image-keyboard-response","460","461484","0.0-4.0-1.138","true"
"587","ImagesDirect/VL110.png","188","test",",","image-keyboard-response","462","462602","0.0-4.0-1.139","true"
"606","ImagesDirect/VL107.5.png","188","test",",","image-keyboard-response","464","463728","0.0-4.0-1.140","true"
"972","ImagesDirect/VR92.5.png","188","test",",","image-keyboard-response","466","465230","0.0-4.0-1.141","true"
"580","ImagesDirect/VL100.png","188","test",".","image-keyboard-response","468","466329","0.0-4.0-1.142","false"
"700","ImagesTennis/TL95.png","190","test",".","image-keyboard-response","470","467550","0.0-4.0-1.143","true"
"1027","ImagesDirect/VL92.5.png","188","test",".","image-keyboard-response","472","469103","0.0-4.0-1.144","false"
"523","ImagesSoccer/VL107.5.png","188","test",",","image-keyboard-response","474","470141","0.0-4.0-1.145","true"
"977","ImagesSoccer/VR97.5.png","190","test",",","image-keyboard-response","476","471648","0.0-4.0-1.146","false"
"823","ImagesTennis/TR100.png","188","test",".","image-keyboard-response","478","472991","0.0-4.0-1.147","false"
"1204","ImagesDirect/VR95.png","188","test",",","image-keyboard-response","480","474719","0.0-4.0-1.148","true"
"939","ImagesSoccer/VR95.png","188","test",",","image-keyboard-response","482","476168","0.0-4.0-1.149","true"
"607","ImagesDirect/VL105.png","188","test",",","image-keyboard-response","484","477304","0.0-4.0-1.150","true"
"904","ImagesSoccer/VR90.png","188","test",",","image-keyboard-response","486","478730","0.0-4.0-1.151","true"
"678","ImagesDirect/VR110.png","190","test",".","image-keyboard-response","488","479915","0.0-4.0-1.152","true"
"786","ImagesTennis/TR95.png","188","test",",","image-keyboard-response","490","481224","0.0-4.0-1.153","true"
"578","ImagesTennis/TL110.png","188","test",",","image-keyboard-response","492","482322","0.0-4.0-1.154","true"
"568","ImagesTennis/TR90.png","188","test",",","image-keyboard-response","494","483418","0.0-4.0-1.155","true"
"981","ImagesSoccer/VL100.png","188","test",".","image-keyboard-response","496","484934","0.0-4.0-1.156","false"
"1219","ImagesTennis/TR107.5.png","190","test",".","image-keyboard-response","498","486676","0.0-4.0-1.157","true"
"526","ImagesSoccer/VL110.png","188","test",",","image-keyboard-response","500","487724","0.0-4.0-1.158","true"
"677","ImagesSoccer/VR107.5.png","190","test",".","image-keyboard-response","502","488920","0.0-4.0-1.159","true"
"1100","ImagesSoccer/VR100.png","188","test",".","image-keyboard-response","504","490548","0.0-4.0-1.160","false"
"1462","ImagesDirect/VL95.png","188","test",".","image-keyboard-response","506","492530","0.0-4.0-1.161","false"
"697","ImagesDirect/VR107.5.png","190","test",".","image-keyboard-response","508","493754","0.0-4.0-1.162","true"
"799","ImagesSoccer/VL95.png","190","test",".","image-keyboard-response","510","495079","0.0-4.0-1.163","true"
"815","ImagesTennis/TR92.5.png","188","test",",","image-keyboard-response","512","496414","0.0-4.0-1.164","true"
"682","ImagesDirect/VR105.png","190","test",".","image-keyboard-response","514","497615","0.0-4.0-1.165","true"
"664","ImagesSoccer/VR107.5.png","190","test",".","image-keyboard-response","516","498786","0.0-4.0-1.166","true"
"625","ImagesSoccer/VL105.png","188","test",",","image-keyboard-response","518","499920","0.0-4.0-1.167","true"
"875","ImagesSoccer/VR105.png","190","test",".","image-keyboard-response","520","501307","0.0-4.0-1.168","true"
"1629","ImagesTennis/TR110.png","190","test",".","image-keyboard-response","522","503466","0.0-4.0-1.169","true"
"949","ImagesSoccer/VL100.png","188","test",".","image-keyboard-response","524","504943","0.0-4.0-1.170","false"
"1400","ImagesTennis/TL95.png","190","test",".","image-keyboard-response","526","506858","0.0-4.0-1.171","true"
"667","ImagesTennis/TR102.5.png","188","test",".","image-keyboard-response","528","508049","0.0-4.0-1.172","false"
"1250","ImagesTennis/TR107.5.png","190","test",".","image-keyboard-response","530","509818","0.0-4.0-1.173","true"
"1362","ImagesDirect/VL92.5.png","188","test",".","image-keyboard-response","532","511692","0.0-4.0-1.174","false"
"1198","ImagesDirect/VR90.png","188","test",",","image-keyboard-response","534","513422","0.0-4.0-1.175","true"
"1486","ImagesSoccer/VL92.5.png","190","test",".","image-keyboard-response","536","515422","0.0-4.0-1.176","true"
"641","ImagesTennis/TR90.png","188","test",",","image-keyboard-response","538","516573","0.0-4.0-1.177","true"
"842","ImagesDirect/VL97.5.png","188","test",".","image-keyboard-response","540","517933","0.0-4.0-1.178","false"
"1959","ImagesTennis/TL105.png","188","test",",","image-keyboard-response","542","520406","0.0-4.0-1.179","true"
"1080","ImagesDirect/VR92.5.png","188","test",",","image-keyboard-response","544","522011","0.0-4.0-1.180","true"
"725","ImagesTennis/TR97.5.png","188","test",",","image-keyboard-response","546","523251","0.0-4.0-1.181","true"
"1244","ImagesTennis/TR105.png","188","test",".","image-keyboard-response","548","525003","0.0-4.0-1.182","false"
"1033","ImagesTennis/TL102.5.png","190","test",",","image-keyboard-response","550","526563","0.0-4.0-1.183","false"
"1774","ImagesDirect/VL90.png","190","test",".","image-keyboard-response","552","528865","0.0-4.0-1.184","true"
"937","ImagesSoccer/VL90.png","190","test",".","image-keyboard-response","554","530331","0.0-4.0-1.185","true"
"637","ImagesSoccer/VL110.png","188","test",",","image-keyboard-response","556","531492","0.0-4.0-1.186","true"
"622","ImagesDirect/VR97.5.png","190","test",",","image-keyboard-response","558","532643","0.0-4.0-1.187","false"
"813","ImagesDirect/VL105.png","188","test",",","image-keyboard-response","560","533974","0.0-4.0-1.188","true"
"856","ImagesDirect/VL100.png","188","test",".","image-keyboard-response","562","535368","0.0-4.0-1.189","false"
"2179","ImagesTennis/TL100.png","188","test",".","image-keyboard-response","564","538081","0.0-4.0-1.190","false"
"893","ImagesTennis/TL92.5.png","190","test",".","image-keyboard-response","566","539497","0.0-4.0-1.191","true"
"1081","ImagesSoccer/VR100.png","188","test",".","image-keyboard-response","568","541105","0.0-4.0-1.192","false"
"665","ImagesSoccer/VL107.5.png","188","test",",","image-keyboard-response","570","542279","0.0-4.0-1.193","true"
"782","ImagesSoccer/VR90.png","188","test",",","image-keyboard-response","572","543585","0.0-4.0-1.194","true"
"717","ImagesTennis/TR100.png","188","test",".","image-keyboard-response","574","544807","0.0-4.0-1.195","false"
"1317","ImagesTennis/TL90.png","190","test",".","image-keyboard-response","576","546658","0.0-4.0-1.196","true"
"623","ImagesDirect/VL110.png","188","test",",","image-keyboard-response","578","547806","0.0-4.0-1.197","true"
"790","ImagesDirect/VL102.5.png","188","test",",","image-keyboard-response","580","549115","0.0-4.0-1.198","true"
"643","ImagesDirect/VR110.png","190","test",".","image-keyboard-response","582","550276","0.0-4.0-1.199","true"
"875","ImagesSoccer/VR95.png","188","test",",","image-keyboard-response","584","551665","0.0-4.0-1.200","true"
"678","ImagesSoccer/VR92.5.png","188","test",",","image-keyboard-response","586","552868","0.0-4.0-1.201","true"
"1035","ImagesSoccer/VR102.5.png","190","test",".","image-keyboard-response","588","554427","0.0-4.0-1.202","true"
"669","ImagesSoccer/VL102.5.png","188","test",",","image-keyboard-response","590","555612","0.0-4.0-1.203","true"
"591","ImagesDirect/VR102.5.png","190","test",".","image-keyboard-response","592","556734","0.0-4.0-1.204","true"
"726","ImagesTennis/TL107.5.png","188","test",",","image-keyboard-response","594","557990","0.0-4.0-1.205","true"
"742","ImagesTennis/TL97.5.png","190","test",".","image-keyboard-response","596","559256","0.0-4.0-1.206","true"
"679","ImagesSoccer/VR110.png","190","test",".","image-keyboard-response","598","560462","0.0-4.0-1.207","true"
"1063","ImagesDirect/VR95.png","188","test",",","image-keyboard-response","600","562042","0.0-4.0-1.208","true"
"2924","ImagesTennis/TL110.png","188","test",",","image-keyboard-response","602","565476","0.0-4.0-1.209","true"
"1673","ImagesSoccer/VR97.5.png","190","test",",","image-keyboard-response","604","567677","0.0-4.0-1.210","false"
"1663","ImagesSoccer/VL97.5.png","188","test",".","image-keyboard-response","606","569862","0.0-4.0-1.211","false"
"792","ImagesDirect/VR100.png","190","test",".","image-keyboard-response","608","571182","0.0-4.0-1.212","true"
"615","ImagesTennis/TR95.png","188","test",",","image-keyboard-response","610","572310","0.0-4.0-1.213","true"
"1257","ImagesDirect/VL95.png","188","test",".","image-keyboard-response","612","574086","0.0-4.0-1.214","false"
"609","ImagesDirect/VL107.5.png","188","test",",","image-keyboard-response","614","575218","0.0-4.0-1.215","true"
"793","ImagesDirect/VL100.png","190","test",".","image-keyboard-response","616","576535","0.0-4.0-1.216","true"
"1174","ImagesSoccer/VL100.png","188","test",".","image-keyboard-response","618","578222","0.0-4.0-1.217","false"
"1332","ImagesTennis/TL105.png","188","test",",","image-keyboard-response","620","580077","0.0-4.0-1.218","true"
"882","ImagesDirect/VR95.png","190","test",",","image-keyboard-response","622","581485","0.0-4.0-1.219","false"
"622","ImagesTennis/TR95.png","188","test",",","image-keyboard-response","624","582633","0.0-4.0-1.220","true"
"1337","ImagesTennis/TR107.5.png","190","test",".","image-keyboard-response","626","584504","0.0-4.0-1.221","true"
"654","ImagesSoccer/VL107.5.png","188","test",",","image-keyboard-response","628","585683","0.0-4.0-1.222","true"
"1075","ImagesDirect/VL102.5.png","188","test",",","image-keyboard-response","630","587275","0.0-4.0-1.223","true"
"1398","ImagesTennis/TL102.5.png","188","test",",","image-keyboard-response","632","589191","0.0-4.0-1.224","true"
"2180","ImagesTennis/TR105.png","190","test",".","image-keyboard-response","634","591899","0.0-4.0-1.225","true"
"869","ImagesTennis/TL107.5.png","188","test",",","image-keyboard-response","636","593290","0.0-4.0-1.226","true"
"707","ImagesDirect/VR90.png","188","test",",","image-keyboard-response","638","594529","0.0-4.0-1.227","true"
"643","ImagesDirect/VR110.png","190","test",".","image-keyboard-response","640","595701","0.0-4.0-1.228","true"
"674","ImagesTennis/TR90.png","188","test",",","image-keyboard-response","642","596908","0.0-4.0-1.229","true"
"796","ImagesDirect/VR97.5.png","190","test",",","image-keyboard-response","644","598218","0.0-4.0-1.230","false"
"1043","ImagesTennis/TL97.5.png","190","test",".","image-keyboard-response","646","599790","0.0-4.0-1.231","true"
"729","ImagesDirect/VL105.png","188","test",",","image-keyboard-response","648","601042","0.0-4.0-1.232","true"
"836","ImagesTennis/TR97.5.png","188","test",",","image-keyboard-response","650","602411","0.0-4.0-1.233","true"
"706","ImagesSoccer/VR110.png","190","test",".","image-keyboard-response","652","603650","0.0-4.0-1.234","true"
"604","ImagesTennis/TR92.5.png","188","test",",","image-keyboard-response","654","604786","0.0-4.0-1.235","true"
"675","ImagesSoccer/VL110.png","188","test",",","image-keyboard-response","656","605981","0.0-4.0-1.236","true"
"582","ImagesDirect/VR105.png","190","test",".","image-keyboard-response","658","607081","0.0-4.0-1.237","true"
"1034","ImagesSoccer/VL102.5.png","188","test",",","image-keyboard-response","660","608641","0.0-4.0-1.238","true"
"1316","ImagesSoccer/VR97.5.png","188","test",",","image-keyboard-response","662","610478","0.0-4.0-1.239","true"
"1169","ImagesTennis/TL95.png","190","test",".","image-keyboard-response","664","612174","0.0-4.0-1.240","true"
"1145","ImagesDirect/VR92.5.png","188","test",",","image-keyboard-response","666","613838","0.0-4.0-1.241","true"
"598","ImagesTennis/TL110.png","188","test",",","image-keyboard-response","668","614958","0.0-4.0-1.242","true"
"714","ImagesSoccer/VL90.png","190","test",".","image-keyboard-response","670","616202","0.0-4.0-1.243","true"
"645","ImagesTennis/TL92.5.png","190","test",".","image-keyboard-response","672","617359","0.0-4.0-1.244","true"
"686","ImagesDirect/VR102.5.png","190","test",".","image-keyboard-response","674","618574","0.0-4.0-1.245","true"
"1157","ImagesSoccer/VR102.5.png","190","test",".","image-keyboard-response","676","620239","0.0-4.0-1.246","true"
"1374","ImagesSoccer/VL97.5.png","188","test",".","image-keyboard-response","678","622130","0.0-4.0-1.247","false"
"695","ImagesDirect/VR100.png","190","test",".","image-keyboard-response","680","623361","0.0-4.0-1.248","true"
"786","ImagesSoccer/VL95.png","190","test",".","image-keyboard-response","682","624671","0.0-4.0-1.249","true"
"777","ImagesSoccer/VL92.5.png","190","test",".","image-keyboard-response","684","625957","0.0-4.0-1.250","true"
"1782","ImagesDirect/VL92.5.png","188","test",".","image-keyboard-response","686","628267","0.0-4.0-1.251","false"
"1142","ImagesTennis/TR100.png","188","test",".","image-keyboard-response","688","629929","0.0-4.0-1.252","false"
"1620","ImagesSoccer/VR95.png","188","test",",","image-keyboard-response","690","632081","0.0-4.0-1.253","true"
"1797","ImagesDirect/VL97.5.png","188","test",".","image-keyboard-response","692","634403","0.0-4.0-1.254","false"
"1108","ImagesSoccer/VR105.png","190","test",".","image-keyboard-response","694","636038","0.0-4.0-1.255","true"
"594","ImagesDirect/VR107.5.png","190","test",".","image-keyboard-response","696","637152","0.0-4.0-1.256","true"
"719","ImagesTennis/TR110.png","190","test",".","image-keyboard-response","698","638385","0.0-4.0-1.257","true"
"569","ImagesSoccer/VR107.5.png","190","test",".","image-keyboard-response","700","639496","0.0-4.0-1.258","true"
"870","ImagesSoccer/VR100.png","190","test",".","image-keyboard-response","702","640879","0.0-4.0-1.259","true"
"680","ImagesDirect/VL107.5.png","188","test",",","image-keyboard-response","704","642082","0.0-4.0-1.260","true"
"675","ImagesTennis/TL100.png","190","test",".","image-keyboard-response","706","643294","0.0-4.0-1.261","true"
"764","ImagesTennis/TL90.png","190","test",".","image-keyboard-response","708","644593","0.0-4.0-1.262","true"
"852","ImagesDirect/VL95.png","188","test",".","image-keyboard-response","710","645966","0.0-4.0-1.263","false"
"637","ImagesDirect/VL110.png","188","test",",","image-keyboard-response","712","647133","0.0-4.0-1.264","true"
"1129","ImagesSoccer/VR92.5.png","188","test",",","image-keyboard-response","714","648779","0.0-4.0-1.265","true"
"586","ImagesSoccer/VL105.png","188","test",",","image-keyboard-response","716","649881","0.0-4.0-1.266","true"
"952","ImagesSoccer/VR90.png","188","test",",","image-keyboard-response","718","651349","0.0-4.0-1.267","true"
"753","ImagesDirect/VL90.png","190","test",".","image-keyboard-response","720","652628","0.0-4.0-1.268","true"
"667","ImagesTennis/TR102.5.png","188","test",".","image-keyboard-response","722","653822","0.0-4.0-1.269","false"
