"rt","stimulus","key_press","test_part","correct_response","trial_type","trial_index","time_elapsed","internal_node_id","correct"
"3719","ImagesCoins/10R92.5.png","188","test",",","image-keyboard-response","4","35180","0.0-3.0-1.0","true"
"4018","ImagesCoins/10R105.png","190","test",".","image-keyboard-response","6","39720","0.0-3.0-1.1","true"
"2805","ImagesCoins/10R95.png","188","test",",","image-keyboard-response","8","43038","0.0-3.0-1.2","true"
"4255","ImagesCoins/10L107.5.png","188","test",",","image-keyboard-response","10","47807","0.0-3.0-1.3","true"
"5786","ImagesCoins/10L100.png","190","test",".","image-keyboard-response","12","54105","0.0-3.0-1.4","true"
"1120","ImagesCoins/10L105.png","188","test",",","image-keyboard-response","14","55733","0.0-3.0-1.5","true"
"943","ImagesCoins/10R97.5.png","190","test",",","image-keyboard-response","16","57192","0.0-3.0-1.6","false"
"923","ImagesCoins/10L95.png","190","test",".","image-keyboard-response","18","58625","0.0-3.0-1.7","true"
"939","ImagesCoins/10R107.5.png","190","test",".","image-keyboard-response","20","60075","0.0-3.0-1.8","true"
"3978","ImagesCoins/10R100.png","190","test",".","image-keyboard-response","22","64567","0.0-3.0-1.9","true"
"923","ImagesCoins/10R102.5.png","190","test",".","image-keyboard-response","24","65994","0.0-3.0-1.10","true"
"1468","ImagesCoins/10L92.5.png","190","test",".","image-keyboard-response","26","67974","0.0-3.0-1.11","true"
"2281","ImagesCoins/10L97.5.png","188","test",".","image-keyboard-response","28","70773","0.0-3.0-1.12","false"
"751","ImagesCoins/10R110.png","190","test",".","image-keyboard-response","30","72030","0.0-3.0-1.13","true"
"4774","ImagesCoins/10L102.5.png","190","test",",","image-keyboard-response","32","77312","0.0-3.0-1.14","false"
"813","ImagesCoins/10L110.png","188","test",",","image-keyboard-response","34","78634","0.0-3.0-1.15","true"
"822","ImagesCoins/10L90.png","190","test",".","image-keyboard-response","36","79966","0.0-3.0-1.16","true"
"1446","ImagesCoins/10R90.png","188","test",",","image-keyboard-response","38","81925","0.0-3.0-1.17","true"
"708","ImagesCoins/10L90.png","190","test",".","image-keyboard-response","40","83141","0.0-3.0-1.18","true"
"748","ImagesCoins/10L92.5.png","190","test",".","image-keyboard-response","42","84400","0.0-3.0-1.19","true"
"687","ImagesCoins/10R110.png","190","test",".","image-keyboard-response","44","85599","0.0-3.0-1.20","true"
"2250","ImagesCoins/10L97.5.png","190","test",".","image-keyboard-response","46","88357","0.0-3.0-1.21","true"
"1822","ImagesCoins/10L100.png","190","test",".","image-keyboard-response","48","90689","0.0-3.0-1.22","true"
"1033","ImagesCoins/10R102.5.png","190","test",".","image-keyboard-response","50","92226","0.0-3.0-1.23","true"
"846","ImagesCoins/10R90.png","188","test",",","image-keyboard-response","52","93576","0.0-3.0-1.24","true"
"984","ImagesCoins/10L110.png","188","test",",","image-keyboard-response","54","95076","0.0-3.0-1.25","true"
"4425","ImagesCoins/10R95.png","188","test",",","image-keyboard-response","56","100005","0.0-3.0-1.26","true"
"1668","ImagesCoins/10L102.5.png","188","test",",","image-keyboard-response","58","102185","0.0-3.0-1.27","true"
"631","ImagesCoins/10L95.png","190","test",".","image-keyboard-response","60","103326","0.0-3.0-1.28","true"
"1324","ImagesCoins/10R92.5.png","188","test",",","image-keyboard-response","62","105158","0.0-3.0-1.29","true"
"658","ImagesCoins/10R107.5.png","190","test",".","image-keyboard-response","64","106328","0.0-3.0-1.30","true"
"1483","ImagesCoins/10L105.png","188","test",",","image-keyboard-response","66","108319","0.0-3.0-1.31","true"
"609","ImagesCoins/10R97.5.png","190","test",",","image-keyboard-response","68","109440","0.0-3.0-1.32","false"
"2153","ImagesCoins/10R100.png","190","test",".","image-keyboard-response","70","112109","0.0-3.0-1.33","true"
"1424","ImagesCoins/10L107.5.png","188","test",",","image-keyboard-response","72","114044","0.0-3.0-1.34","true"
"926","ImagesCoins/10R105.png","190","test",".","image-keyboard-response","74","115474","0.0-3.0-1.35","true"
"635","ImagesCoins/10R90.png","188","test",",","image-keyboard-response","76","116613","0.0-3.0-1.36","true"
"1282","ImagesCoins/10L95.png","190","test",".","image-keyboard-response","78","118407","0.0-3.0-1.37","true"
"1053","ImagesCoins/10R102.5.png","190","test",".","image-keyboard-response","80","119962","0.0-3.0-1.38","true"
"1380","ImagesCoins/10R110.png","190","test",".","image-keyboard-response","82","121849","0.0-3.0-1.39","true"
"923","ImagesCoins/10R107.5.png","190","test",".","image-keyboard-response","84","123282","0.0-3.0-1.40","true"
"3484","ImagesCoins/10R105.png","190","test",".","image-keyboard-response","86","127270","0.0-3.0-1.41","true"
"931","ImagesCoins/10L90.png","190","test",".","image-keyboard-response","88","128714","0.0-3.0-1.42","true"
"1324","ImagesCoins/10L100.png","188","test",".","image-keyboard-response","90","130541","0.0-3.0-1.43","false"
"2170","ImagesCoins/10L92.5.png","190","test",".","image-keyboard-response","92","133220","0.0-3.0-1.44","true"
"641","ImagesCoins/10L110.png","188","test",",","image-keyboard-response","94","134365","0.0-3.0-1.45","true"
"750","ImagesCoins/10L107.5.png","188","test",",","image-keyboard-response","96","135619","0.0-3.0-1.46","true"
"1001","ImagesCoins/10L97.5.png","190","test",".","image-keyboard-response","98","137129","0.0-3.0-1.47","true"
"4179","ImagesCoins/10R97.5.png","188","test",",","image-keyboard-response","100","141814","0.0-3.0-1.48","true"
"791","ImagesCoins/10R92.5.png","188","test",",","image-keyboard-response","102","143117","0.0-3.0-1.49","true"
"1951","ImagesCoins/10L102.5.png","188","test",",","image-keyboard-response","104","145575","0.0-3.0-1.50","true"
"867","ImagesCoins/10L105.png","188","test",",","image-keyboard-response","106","146952","0.0-3.0-1.51","true"
"647","ImagesCoins/10R100.png","190","test",".","image-keyboard-response","108","148103","0.0-3.0-1.52","true"
"1230","ImagesCoins/10R95.png","188","test",",","image-keyboard-response","110","149839","0.0-3.0-1.53","true"
"700","ImagesCoins/10R110.png","190","test",".","image-keyboard-response","112","151049","0.0-3.0-1.54","true"
"649","ImagesCoins/10L107.5.png","188","test",",","image-keyboard-response","114","152202","0.0-3.0-1.55","true"
"2246","ImagesCoins/10R97.5.png","190","test",",","image-keyboard-response","116","154953","0.0-3.0-1.56","false"
"964","ImagesCoins/10L95.png","190","test",".","image-keyboard-response","118","156425","0.0-3.0-1.57","true"
"1287","ImagesCoins/10L102.5.png","188","test",",","image-keyboard-response","120","158222","0.0-3.0-1.58","true"
"1548","ImagesCoins/10L105.png","188","test",",","image-keyboard-response","122","160276","0.0-3.0-1.59","true"
"1161","ImagesCoins/10L100.png","188","test",".","image-keyboard-response","124","161943","0.0-3.0-1.60","false"
"619","ImagesCoins/10L110.png","188","test",",","image-keyboard-response","126","163072","0.0-3.0-1.61","true"
"905","ImagesCoins/10L97.5.png","190","test",".","image-keyboard-response","128","164486","0.0-3.0-1.62","true"
"597","ImagesCoins/10R107.5.png","190","test",".","image-keyboard-response","130","165586","0.0-3.0-1.63","true"
"636","ImagesCoins/10R105.png","190","test",".","image-keyboard-response","132","166734","0.0-3.0-1.64","true"
"1024","ImagesCoins/10R95.png","188","test",",","image-keyboard-response","134","168267","0.0-3.0-1.65","true"
"1208","ImagesCoins/10L92.5.png","190","test",".","image-keyboard-response","136","169985","0.0-3.0-1.66","true"
"4230","ImagesCoins/10R100.png","188","test",".","image-keyboard-response","138","174725","0.0-3.0-1.67","false"
"832","ImagesCoins/10L90.png","190","test",".","image-keyboard-response","140","176061","0.0-3.0-1.68","true"
"704","ImagesCoins/10R92.5.png","188","test",",","image-keyboard-response","142","177272","0.0-3.0-1.69","true"
"727","ImagesCoins/10R90.png","188","test",",","image-keyboard-response","144","178503","0.0-3.0-1.70","true"
"673","ImagesCoins/10R102.5.png","190","test",".","image-keyboard-response","146","179681","0.0-3.0-1.71","true"
"870","ImagesCoins/10L92.5.png","190","test",".","image-keyboard-response","148","181063","0.0-3.0-1.72","true"
"922","ImagesCoins/10R110.png","190","test",".","image-keyboard-response","150","182501","0.0-3.0-1.73","true"
"546","ImagesCoins/10L107.5.png","188","test",",","image-keyboard-response","152","183563","0.0-3.0-1.74","true"
"860","ImagesCoins/10R102.5.png","190","test",".","image-keyboard-response","154","184933","0.0-3.0-1.75","true"
"1086","ImagesCoins/10L90.png","190","test",".","image-keyboard-response","156","186521","0.0-3.0-1.76","true"
"2822","ImagesCoins/10R100.png","190","test",".","image-keyboard-response","158","189847","0.0-3.0-1.77","true"
"1342","ImagesCoins/10R95.png","188","test",",","image-keyboard-response","160","191703","0.0-3.0-1.78","true"
"1710","ImagesCoins/10R90.png","188","test",",","image-keyboard-response","162","193923","0.0-3.0-1.79","true"
"2758","ImagesCoins/10L102.5.png","188","test",",","image-keyboard-response","164","197186","0.0-3.0-1.80","true"
"2314","ImagesCoins/10R92.5.png","188","test",",","image-keyboard-response","166","200011","0.0-3.0-1.81","true"
"852","ImagesCoins/10R107.5.png","190","test",".","image-keyboard-response","168","201371","0.0-3.0-1.82","true"
"1362","ImagesCoins/10L100.png","190","test",".","image-keyboard-response","170","203244","0.0-3.0-1.83","true"
"978","ImagesCoins/10R105.png","190","test",".","image-keyboard-response","172","204732","0.0-3.0-1.84","true"
"589","ImagesCoins/10L105.png","188","test",",","image-keyboard-response","174","205838","0.0-3.0-1.85","true"
"1081","ImagesCoins/10L95.png","190","test",".","image-keyboard-response","176","207427","0.0-3.0-1.86","true"
"521","ImagesCoins/10L110.png","188","test",",","image-keyboard-response","178","208457","0.0-3.0-1.87","true"
"1918","ImagesCoins/10R97.5.png","188","test",",","image-keyboard-response","180","210879","0.0-3.0-1.88","true"
"1688","ImagesCoins/10L97.5.png","188","test",".","image-keyboard-response","182","213081","0.0-3.0-1.89","false"
"2358","ImagesSoccer/VL95.png","190","test",".","image-keyboard-response","184","215945","0.0-4.0-1.0","true"
"1201","ImagesTennis/TL92.5.png","190","test",".","image-keyboard-response","186","217660","0.0-4.0-1.1","true"
"883","ImagesDirect/VL110.png","188","test",",","image-keyboard-response","188","219047","0.0-4.0-1.2","true"
"2579","ImagesTennis/TR97.5.png","188","test",",","image-keyboard-response","190","222143","0.0-4.0-1.3","true"
"1692","ImagesSoccer/VL92.5.png","188","test",".","image-keyboard-response","192","224339","0.0-4.0-1.4","false"
"1119","ImagesDirect/VR92.5.png","188","test",",","image-keyboard-response","194","225966","0.0-4.0-1.5","true"
"905","ImagesDirect/VR105.png","190","test",".","image-keyboard-response","196","227378","0.0-4.0-1.6","true"
"1087","ImagesDirect/VR90.png","188","test",",","image-keyboard-response","198","228974","0.0-4.0-1.7","true"
"2029","ImagesDirect/VR102.5.png","190","test",".","image-keyboard-response","200","231514","0.0-4.0-1.8","true"
"1331","ImagesSoccer/VL102.5.png","190","test",",","image-keyboard-response","202","233350","0.0-4.0-1.9","false"
"2541","ImagesDirect/VR100.png","190","test",".","image-keyboard-response","204","236396","0.0-4.0-1.10","true"
"823","ImagesTennis/TL105.png","188","test",",","image-keyboard-response","206","237730","0.0-4.0-1.11","true"
"999","ImagesSoccer/VR107.5.png","190","test",".","image-keyboard-response","208","239240","0.0-4.0-1.12","true"
"2092","ImagesDirect/VL97.5.png","188","test",".","image-keyboard-response","210","241835","0.0-4.0-1.13","false"
"1463","ImagesSoccer/VR95.png","188","test",",","image-keyboard-response","212","243809","0.0-4.0-1.14","true"
"864","ImagesSoccer/VR100.png","190","test",".","image-keyboard-response","214","245184","0.0-4.0-1.15","true"
"1022","ImagesTennis/TL90.png","190","test",".","image-keyboard-response","216","246714","0.0-4.0-1.16","true"
"2254","ImagesTennis/TL97.5.png","190","test",".","image-keyboard-response","218","249477","0.0-4.0-1.17","true"
"2038","ImagesTennis/TR107.5.png","190","test",".","image-keyboard-response","220","252024","0.0-4.0-1.18","true"
"1274","ImagesSoccer/VL90.png","190","test",".","image-keyboard-response","222","253803","0.0-4.0-1.19","true"
"1882","ImagesTennis/TL95.png","190","test",".","image-keyboard-response","224","256192","0.0-4.0-1.20","true"
"903","ImagesTennis/TR90.png","188","test",",","image-keyboard-response","226","257602","0.0-4.0-1.21","true"
"2325","ImagesTennis/TR100.png","188","test",".","image-keyboard-response","228","260439","0.0-4.0-1.22","false"
"1440","ImagesSoccer/VR102.5.png","188","test",".","image-keyboard-response","230","262390","0.0-4.0-1.23","false"
"2515","ImagesSoccer/VR105.png","190","test",".","image-keyboard-response","232","265408","0.0-4.0-1.24","true"
"718","ImagesSoccer/VR90.png","188","test",",","image-keyboard-response","234","266642","0.0-4.0-1.25","true"
"1377","ImagesDirect/VR97.5.png","188","test",",","image-keyboard-response","236","268521","0.0-4.0-1.26","true"
"1010","ImagesDirect/VL107.5.png","188","test",",","image-keyboard-response","238","270038","0.0-4.0-1.27","true"
"3673","ImagesDirect/VL105.png","188","test",",","image-keyboard-response","240","274222","0.0-4.0-1.28","true"
"718","ImagesDirect/VR107.5.png","190","test",".","image-keyboard-response","242","275445","0.0-4.0-1.29","true"
"1853","ImagesDirect/VL95.png","190","test",".","image-keyboard-response","244","277803","0.0-4.0-1.30","true"
"1913","ImagesSoccer/VL105.png","188","test",",","image-keyboard-response","246","280224","0.0-4.0-1.31","true"
"1331","ImagesTennis/TR95.png","188","test",",","image-keyboard-response","248","282066","0.0-4.0-1.32","true"
"913","ImagesTennis/TR92.5.png","188","test",",","image-keyboard-response","250","283488","0.0-4.0-1.33","true"
"872","ImagesSoccer/VL97.5.png","190","test",".","image-keyboard-response","252","284864","0.0-4.0-1.34","true"
"2366","ImagesTennis/TL102.5.png","190","test",",","image-keyboard-response","254","287734","0.0-4.0-1.35","false"
"802","ImagesDirect/VL102.5.png","188","test",",","image-keyboard-response","256","289043","0.0-4.0-1.36","true"
"1149","ImagesSoccer/VR92.5.png","188","test",",","image-keyboard-response","258","290700","0.0-4.0-1.37","true"
"813","ImagesSoccer/VL107.5.png","188","test",",","image-keyboard-response","260","292020","0.0-4.0-1.38","true"
"759","ImagesTennis/TR110.png","190","test",".","image-keyboard-response","262","293290","0.0-4.0-1.39","true"
"2505","ImagesDirect/VR95.png","188","test",",","image-keyboard-response","264","296307","0.0-4.0-1.40","true"
"1204","ImagesTennis/TL100.png","190","test",".","image-keyboard-response","266","298015","0.0-4.0-1.41","true"
"1603","ImagesTennis/TL110.png","188","test",",","image-keyboard-response","268","300120","0.0-4.0-1.42","true"
"1499","ImagesSoccer/VL110.png","188","test",",","image-keyboard-response","270","302128","0.0-4.0-1.43","true"
"726","ImagesDirect/VR110.png","190","test",".","image-keyboard-response","272","303363","0.0-4.0-1.44","true"
"2422","ImagesDirect/VL90.png","190","test",".","image-keyboard-response","274","306296","0.0-4.0-1.45","true"
"1521","ImagesDirect/VL92.5.png","190","test",".","image-keyboard-response","276","308320","0.0-4.0-1.46","true"
"2213","ImagesSoccer/VL100.png","188","test",".","image-keyboard-response","278","311042","0.0-4.0-1.47","false"
"1218","ImagesTennis/TR105.png","188","test",".","image-keyboard-response","280","312768","0.0-4.0-1.48","false"
"1291","ImagesDirect/VL100.png","188","test",".","image-keyboard-response","282","314571","0.0-4.0-1.49","false"
"1127","ImagesSoccer/VR110.png","190","test",".","image-keyboard-response","284","316210","0.0-4.0-1.50","true"
"1544","ImagesTennis/TL107.5.png","188","test",",","image-keyboard-response","286","318266","0.0-4.0-1.51","true"
"4625","ImagesTennis/TR102.5.png","190","test",".","image-keyboard-response","288","323393","0.0-4.0-1.52","true"
"1378","ImagesSoccer/VR97.5.png","188","test",",","image-keyboard-response","290","325279","0.0-4.0-1.53","true"
"1825","ImagesTennis/TL97.5.png","190","test",".","image-keyboard-response","292","327615","0.0-4.0-1.54","true"
"1210","ImagesSoccer/VL100.png","188","test",".","image-keyboard-response","294","329336","0.0-4.0-1.55","false"
"1493","ImagesDirect/VR107.5.png","190","test",".","image-keyboard-response","296","331338","0.0-4.0-1.56","true"
"2469","ImagesDirect/VR100.png","190","test",".","image-keyboard-response","298","334317","0.0-4.0-1.57","true"
"1430","ImagesTennis/TR107.5.png","190","test",".","image-keyboard-response","300","336251","0.0-4.0-1.58","true"
"1527","ImagesSoccer/VL102.5.png","188","test",",","image-keyboard-response","302","338288","0.0-4.0-1.59","true"
"554","ImagesDirect/VR110.png","190","test",".","image-keyboard-response","304","339346","0.0-4.0-1.60","true"
"991","ImagesDirect/VL92.5.png","190","test",".","image-keyboard-response","306","340842","0.0-4.0-1.61","true"
"764","ImagesSoccer/VL107.5.png","188","test",",","image-keyboard-response","308","342117","0.0-4.0-1.62","true"
"1043","ImagesDirect/VR95.png","188","test",",","image-keyboard-response","310","343666","0.0-4.0-1.63","true"
"2601","ImagesSoccer/VR100.png","190","test",".","image-keyboard-response","312","346771","0.0-4.0-1.64","true"
"686","ImagesTennis/TL92.5.png","190","test",".","image-keyboard-response","314","347976","0.0-4.0-1.65","true"
"684","ImagesTennis/TL105.png","188","test",",","image-keyboard-response","316","349168","0.0-4.0-1.66","true"
"941","ImagesSoccer/VR107.5.png","190","test",".","image-keyboard-response","318","350621","0.0-4.0-1.67","true"
"5028","ImagesDirect/VR90.png","188","test",",","image-keyboard-response","320","356157","0.0-4.0-1.68","true"
"1600","ImagesDirect/VL95.png","190","test",".","image-keyboard-response","322","358267","0.0-4.0-1.69","true"
"745","ImagesTennis/TL102.5.png","188","test",",","image-keyboard-response","324","359522","0.0-4.0-1.70","true"
"686","ImagesDirect/VR102.5.png","190","test",".","image-keyboard-response","326","360711","0.0-4.0-1.71","true"
"1248","ImagesTennis/TL107.5.png","190","test",",","image-keyboard-response","328","362468","0.0-4.0-1.72","false"
"898","ImagesSoccer/VR105.png","190","test",".","image-keyboard-response","330","363873","0.0-4.0-1.73","true"
"995","ImagesSoccer/VR92.5.png","188","test",",","image-keyboard-response","332","365379","0.0-4.0-1.74","true"
"968","ImagesTennis/TR90.png","188","test",",","image-keyboard-response","334","366858","0.0-4.0-1.75","true"
"2169","ImagesDirect/VL107.5.png","188","test",",","image-keyboard-response","336","369531","0.0-4.0-1.76","true"
"2620","ImagesDirect/VR105.png","190","test",".","image-keyboard-response","338","372659","0.0-4.0-1.77","true"
"1454","ImagesTennis/TL110.png","188","test",",","image-keyboard-response","340","374629","0.0-4.0-1.78","true"
"1063","ImagesSoccer/VL90.png","190","test",".","image-keyboard-response","342","376196","0.0-4.0-1.79","true"
"1277","ImagesTennis/TR110.png","190","test",".","image-keyboard-response","344","377978","0.0-4.0-1.80","true"
"1858","ImagesDirect/VL90.png","190","test",".","image-keyboard-response","346","380340","0.0-4.0-1.81","true"
"1658","ImagesDirect/VL102.5.png","188","test",",","image-keyboard-response","348","382508","0.0-4.0-1.82","true"
"987","ImagesTennis/TR95.png","188","test",",","image-keyboard-response","350","383999","0.0-4.0-1.83","true"
"775","ImagesTennis/TL95.png","190","test",".","image-keyboard-response","352","385285","0.0-4.0-1.84","true"
"3403","ImagesDirect/VR92.5.png","190","test",",","image-keyboard-response","354","389196","0.0-4.0-1.85","false"
"732","ImagesSoccer/VR90.png","188","test",",","image-keyboard-response","356","390438","0.0-4.0-1.86","true"
"1594","ImagesSoccer/VR95.png","190","test",",","image-keyboard-response","358","392542","0.0-4.0-1.87","false"
"599","ImagesDirect/VL110.png","188","test",",","image-keyboard-response","360","393646","0.0-4.0-1.88","true"
"1225","ImagesTennis/TR102.5.png","190","test",".","image-keyboard-response","362","395374","0.0-4.0-1.89","true"
"627","ImagesDirect/VL105.png","188","test",",","image-keyboard-response","364","396504","0.0-4.0-1.90","true"
"1224","ImagesDirect/VL97.5.png","188","test",".","image-keyboard-response","366","398234","0.0-4.0-1.91","false"
"1274","ImagesSoccer/VL95.png","188","test",".","image-keyboard-response","368","400016","0.0-4.0-1.92","false"
"1367","ImagesTennis/TR92.5.png","188","test",",","image-keyboard-response","370","401888","0.0-4.0-1.93","true"
"2119","ImagesTennis/TR97.5.png","188","test",",","image-keyboard-response","372","404512","0.0-4.0-1.94","true"
"2800","ImagesTennis/TR105.png","188","test",".","image-keyboard-response","374","407831","0.0-4.0-1.95","false"
"6602","ImagesDirect/VL100.png","188","test",".","image-keyboard-response","376","414937","0.0-4.0-1.96","false"
"1542","ImagesSoccer/VL110.png","188","test",",","image-keyboard-response","378","416989","0.0-4.0-1.97","true"
"651","ImagesTennis/TL90.png","190","test",".","image-keyboard-response","380","418150","0.0-4.0-1.98","true"
"1517","ImagesTennis/TL100.png","190","test",".","image-keyboard-response","382","420174","0.0-4.0-1.99","true"
"1044","ImagesSoccer/VL105.png","188","test",",","image-keyboard-response","384","421726","0.0-4.0-1.100","true"
"539","ImagesSoccer/VR110.png","190","test",".","image-keyboard-response","386","422772","0.0-4.0-1.101","true"
"824","ImagesDirect/VR97.5.png","188","test",",","image-keyboard-response","388","424099","0.0-4.0-1.102","true"
"940","ImagesSoccer/VL97.5.png","190","test",".","image-keyboard-response","390","425542","0.0-4.0-1.103","true"
"2518","ImagesSoccer/VR97.5.png","190","test",",","image-keyboard-response","392","428570","0.0-4.0-1.104","false"
"1934","ImagesTennis/TR100.png","188","test",".","image-keyboard-response","394","431007","0.0-4.0-1.105","false"
"700","ImagesSoccer/VR102.5.png","190","test",".","image-keyboard-response","396","432216","0.0-4.0-1.106","true"
"807","ImagesSoccer/VL92.5.png","190","test",".","image-keyboard-response","398","433526","0.0-4.0-1.107","true"
"955","ImagesDirect/VR110.png","190","test",".","image-keyboard-response","400","434990","0.0-4.0-1.108","true"
"680","ImagesDirect/VR102.5.png","188","test",".","image-keyboard-response","402","436185","0.0-4.0-1.109","false"
"2521","ImagesSoccer/VR95.png","188","test",",","image-keyboard-response","404","439218","0.0-4.0-1.110","true"
"640","ImagesTennis/TL95.png","190","test",".","image-keyboard-response","406","440362","0.0-4.0-1.111","true"
"982","ImagesSoccer/VR105.png","190","test",".","image-keyboard-response","408","441852","0.0-4.0-1.112","true"
"1558","ImagesSoccer/VR102.5.png","190","test",".","image-keyboard-response","410","443918","0.0-4.0-1.113","true"
"997","ImagesDirect/VR105.png","190","test",".","image-keyboard-response","412","445424","0.0-4.0-1.114","true"
"1350","ImagesSoccer/VL100.png","188","test",".","image-keyboard-response","414","447284","0.0-4.0-1.115","false"
"1497","ImagesSoccer/VR90.png","188","test",",","image-keyboard-response","416","449285","0.0-4.0-1.116","true"
"2699","ImagesDirect/VR95.png","188","test",",","image-keyboard-response","418","452490","0.0-4.0-1.117","true"
"902","ImagesTennis/TL105.png","190","test",",","image-keyboard-response","420","453895","0.0-4.0-1.118","false"
"1443","ImagesTennis/TR92.5.png","188","test",",","image-keyboard-response","422","455849","0.0-4.0-1.119","true"
"731","ImagesTennis/TR110.png","190","test",".","image-keyboard-response","424","457100","0.0-4.0-1.120","true"
"990","ImagesTennis/TL90.png","190","test",".","image-keyboard-response","426","458598","0.0-4.0-1.121","true"
"3249","ImagesDirect/VR92.5.png","188","test",",","image-keyboard-response","428","462352","0.0-4.0-1.122","true"
"1385","ImagesTennis/TR102.5.png","188","test",".","image-keyboard-response","430","464243","0.0-4.0-1.123","false"
"787","ImagesDirect/VL107.5.png","188","test",",","image-keyboard-response","432","465541","0.0-4.0-1.124","true"
"970","ImagesSoccer/VL97.5.png","190","test",".","image-keyboard-response","434","467018","0.0-4.0-1.125","true"
"1369","ImagesDirect/VL105.png","188","test",",","image-keyboard-response","436","468891","0.0-4.0-1.126","true"
"1419","ImagesSoccer/VR107.5.png","190","test",".","image-keyboard-response","438","470824","0.0-4.0-1.127","true"
"1089","ImagesDirect/VR97.5.png","188","test",",","image-keyboard-response","440","472423","0.0-4.0-1.128","true"
"930","ImagesDirect/VR100.png","190","test",".","image-keyboard-response","442","473873","0.0-4.0-1.129","true"
"1144","ImagesSoccer/VL110.png","188","test",",","image-keyboard-response","444","475533","0.0-4.0-1.130","true"
"883","ImagesTennis/TR90.png","188","test",",","image-keyboard-response","446","476922","0.0-4.0-1.131","true"
"1223","ImagesTennis/TR100.png","190","test",".","image-keyboard-response","448","478654","0.0-4.0-1.132","true"
"1119","ImagesDirect/VL92.5.png","188","test",".","image-keyboard-response","450","480280","0.0-4.0-1.133","false"
"1414","ImagesDirect/VL100.png","188","test",".","image-keyboard-response","452","482204","0.0-4.0-1.134","false"
"2401","ImagesTennis/TL100.png","190","test",".","image-keyboard-response","454","485108","0.0-4.0-1.135","true"
"851","ImagesSoccer/VR92.5.png","188","test",",","image-keyboard-response","456","486468","0.0-4.0-1.136","true"
"1029","ImagesSoccer/VL107.5.png","188","test",",","image-keyboard-response","458","488005","0.0-4.0-1.137","true"
"1127","ImagesTennis/TL107.5.png","188","test",",","image-keyboard-response","460","489650","0.0-4.0-1.138","true"
"970","ImagesTennis/TL97.5.png","190","test",".","image-keyboard-response","462","491129","0.0-4.0-1.139","true"
"1405","ImagesDirect/VL97.5.png","190","test",".","image-keyboard-response","464","493041","0.0-4.0-1.140","true"
"2158","ImagesDirect/VR107.5.png","188","test",".","image-keyboard-response","466","495723","0.0-4.0-1.141","false"
"786","ImagesTennis/TL102.5.png","188","test",",","image-keyboard-response","468","497015","0.0-4.0-1.142","true"
"1087","ImagesDirect/VL102.5.png","188","test",",","image-keyboard-response","470","498608","0.0-4.0-1.143","true"
"1363","ImagesTennis/TR97.5.png","188","test",",","image-keyboard-response","472","500475","0.0-4.0-1.144","true"
"915","ImagesTennis/TR95.png","188","test",",","image-keyboard-response","474","501892","0.0-4.0-1.145","true"
"826","ImagesTennis/TL110.png","188","test",",","image-keyboard-response","476","503226","0.0-4.0-1.146","true"
"1915","ImagesDirect/VL95.png","190","test",".","image-keyboard-response","478","505646","0.0-4.0-1.147","true"
"2043","ImagesSoccer/VL92.5.png","190","test",".","image-keyboard-response","480","508202","0.0-4.0-1.148","true"
"936","ImagesDirect/VL110.png","188","test",",","image-keyboard-response","482","509645","0.0-4.0-1.149","true"
"1567","ImagesDirect/VL90.png","190","test",".","image-keyboard-response","484","511726","0.0-4.0-1.150","true"
"1795","ImagesTennis/TR107.5.png","188","test",".","image-keyboard-response","486","514028","0.0-4.0-1.151","false"
"1575","ImagesSoccer/VL102.5.png","188","test",",","image-keyboard-response","488","516116","0.0-4.0-1.152","true"
"818","ImagesTennis/TL92.5.png","190","test",".","image-keyboard-response","490","517443","0.0-4.0-1.153","true"
"921","ImagesSoccer/VR110.png","190","test",".","image-keyboard-response","492","518870","0.0-4.0-1.154","true"
"1357","ImagesDirect/VR90.png","188","test",",","image-keyboard-response","494","520738","0.0-4.0-1.155","true"
"1138","ImagesSoccer/VL105.png","188","test",",","image-keyboard-response","496","522386","0.0-4.0-1.156","true"
"2296","ImagesSoccer/VR100.png","190","test",".","image-keyboard-response","498","525192","0.0-4.0-1.157","true"
"2283","ImagesTennis/TR105.png","190","test",".","image-keyboard-response","500","527987","0.0-4.0-1.158","true"
"1208","ImagesSoccer/VL90.png","190","test",".","image-keyboard-response","502","529701","0.0-4.0-1.159","true"
"1269","ImagesSoccer/VL95.png","188","test",".","image-keyboard-response","504","531481","0.0-4.0-1.160","false"
"891","ImagesSoccer/VR97.5.png","188","test",",","image-keyboard-response","506","532875","0.0-4.0-1.161","true"
"668","ImagesDirect/VL110.png","188","test",",","image-keyboard-response","508","534052","0.0-4.0-1.162","true"
"727","ImagesSoccer/VR105.png","190","test",".","image-keyboard-response","510","535292","0.0-4.0-1.163","true"
"943","ImagesTennis/TR90.png","188","test",",","image-keyboard-response","512","536745","0.0-4.0-1.164","true"
"653","ImagesTennis/TL102.5.png","190","test",",","image-keyboard-response","514","537902","0.0-4.0-1.165","false"
"3374","ImagesDirect/VL95.png","190","test",".","image-keyboard-response","516","541782","0.0-4.0-1.166","true"
"1239","ImagesSoccer/VR92.5.png","188","test",",","image-keyboard-response","518","543542","0.0-4.0-1.167","true"
"1161","ImagesSoccer/VR97.5.png","188","test",",","image-keyboard-response","520","545208","0.0-4.0-1.168","true"
"1741","ImagesTennis/TR100.png","190","test",".","image-keyboard-response","522","547460","0.0-4.0-1.169","true"
"1104","ImagesDirect/VR90.png","188","test",",","image-keyboard-response","524","549075","0.0-4.0-1.170","true"
"571","ImagesTennis/TL95.png","190","test",".","image-keyboard-response","526","550150","0.0-4.0-1.171","true"
"630","ImagesSoccer/VR107.5.png","190","test",".","image-keyboard-response","528","551294","0.0-4.0-1.172","true"
"1407","ImagesDirect/VR97.5.png","190","test",",","image-keyboard-response","530","553212","0.0-4.0-1.173","false"
"832","ImagesTennis/TL100.png","190","test",".","image-keyboard-response","532","554549","0.0-4.0-1.174","true"
"1325","ImagesSoccer/VL102.5.png","188","test",",","image-keyboard-response","534","556377","0.0-4.0-1.175","true"
"1168","ImagesSoccer/VL105.png","188","test",",","image-keyboard-response","536","558050","0.0-4.0-1.176","true"
"3090","ImagesTennis/TL110.png","190","test",",","image-keyboard-response","538","561648","0.0-4.0-1.177","false"
"782","ImagesTennis/TL90.png","190","test",".","image-keyboard-response","540","562939","0.0-4.0-1.178","true"
"915","ImagesDirect/VL90.png","190","test",".","image-keyboard-response","542","564375","0.0-4.0-1.179","true"
"1471","ImagesDirect/VL92.5.png","190","test",".","image-keyboard-response","544","566350","0.0-4.0-1.180","true"
"1113","ImagesTennis/TR97.5.png","188","test",",","image-keyboard-response","546","567972","0.0-4.0-1.181","true"
"910","ImagesTennis/TL97.5.png","190","test",".","image-keyboard-response","548","569391","0.0-4.0-1.182","true"
"1129","ImagesTennis/TR102.5.png","190","test",".","image-keyboard-response","550","571036","0.0-4.0-1.183","true"
"1003","ImagesTennis/TR105.png","190","test",".","image-keyboard-response","552","572544","0.0-4.0-1.184","true"
"886","ImagesSoccer/VL100.png","188","test",".","image-keyboard-response","554","573937","0.0-4.0-1.185","false"
"638","ImagesDirect/VR105.png","190","test",".","image-keyboard-response","556","575083","0.0-4.0-1.186","true"
"974","ImagesTennis/TL105.png","188","test",",","image-keyboard-response","558","576562","0.0-4.0-1.187","true"
"1746","ImagesDirect/VL105.png","190","test",",","image-keyboard-response","560","578816","0.0-4.0-1.188","false"
"1058","ImagesSoccer/VR110.png","190","test",".","image-keyboard-response","562","580382","0.0-4.0-1.189","true"
"739","ImagesTennis/TR107.5.png","190","test",".","image-keyboard-response","564","581625","0.0-4.0-1.190","true"
"817573","ImagesDirect/VL97.5.png","190","test",".","image-keyboard-response","566","1399702","0.0-4.0-1.191","true"
"749","ImagesSoccer/VL92.5.png","190","test",".","image-keyboard-response","568","1400955","0.0-4.0-1.192","true"
"1082","ImagesTennis/TR95.png","188","test",",","image-keyboard-response","570","1402546","0.0-4.0-1.193","true"
"722","ImagesSoccer/VL107.5.png","188","test",",","image-keyboard-response","572","1403772","0.0-4.0-1.194","true"
"1073","ImagesTennis/TL107.5.png","188","test",",","image-keyboard-response","574","1405349","0.0-4.0-1.195","true"
"589","ImagesSoccer/VL95.png","190","test",".","image-keyboard-response","576","1406445","0.0-4.0-1.196","true"
"532","ImagesSoccer/VL110.png","188","test",",","image-keyboard-response","578","1407492","0.0-4.0-1.197","true"
"506","ImagesDirect/VR107.5.png","190","test",".","image-keyboard-response","580","1408505","0.0-4.0-1.198","true"
"972","ImagesSoccer/VL97.5.png","190","test",".","image-keyboard-response","582","1409986","0.0-4.0-1.199","true"
"884","ImagesDirect/VL100.png","188","test",".","image-keyboard-response","584","1411375","0.0-4.0-1.200","false"
"1003","ImagesDirect/VR92.5.png","188","test",",","image-keyboard-response","586","1412891","0.0-4.0-1.201","true"
"1170","ImagesSoccer/VR95.png","188","test",",","image-keyboard-response","588","1414568","0.0-4.0-1.202","true"
"638","ImagesDirect/VR110.png","190","test",".","image-keyboard-response","590","1415725","0.0-4.0-1.203","true"
"604","ImagesSoccer/VR90.png","188","test",",","image-keyboard-response","592","1416839","0.0-4.0-1.204","true"
"1766","ImagesSoccer/VR100.png","190","test",".","image-keyboard-response","594","1419108","0.0-4.0-1.205","true"
"1235","ImagesTennis/TR92.5.png","188","test",",","image-keyboard-response","596","1420854","0.0-4.0-1.206","true"
"1375","ImagesDirect/VL102.5.png","188","test",",","image-keyboard-response","598","1422739","0.0-4.0-1.207","true"
"1125","ImagesDirect/VR95.png","188","test",",","image-keyboard-response","600","1424373","0.0-4.0-1.208","true"
"660","ImagesTennis/TR110.png","190","test",".","image-keyboard-response","602","1425536","0.0-4.0-1.209","true"
"730","ImagesDirect/VL107.5.png","188","test",",","image-keyboard-response","604","1426773","0.0-4.0-1.210","true"
"710","ImagesTennis/TL92.5.png","190","test",".","image-keyboard-response","606","1427990","0.0-4.0-1.211","true"
"593","ImagesDirect/VR100.png","190","test",".","image-keyboard-response","608","1429093","0.0-4.0-1.212","true"
"575","ImagesDirect/VR102.5.png","190","test",".","image-keyboard-response","610","1430170","0.0-4.0-1.213","true"
"941","ImagesSoccer/VR102.5.png","188","test",".","image-keyboard-response","612","1431615","0.0-4.0-1.214","false"
"721","ImagesSoccer/VL90.png","190","test",".","image-keyboard-response","614","1432853","0.0-4.0-1.215","true"
"555","ImagesSoccer/VR90.png","188","test",",","image-keyboard-response","616","1433915","0.0-4.0-1.216","true"
"834","ImagesSoccer/VL100.png","190","test",".","image-keyboard-response","618","1435256","0.0-4.0-1.217","true"
"679","ImagesTennis/TL100.png","190","test",".","image-keyboard-response","620","1436442","0.0-4.0-1.218","true"
"500","ImagesSoccer/VL110.png","188","test",",","image-keyboard-response","622","1437448","0.0-4.0-1.219","true"
"1450","ImagesDirect/VL105.png","188","test",",","image-keyboard-response","624","1439413","0.0-4.0-1.220","true"
"881","ImagesTennis/TR92.5.png","188","test",",","image-keyboard-response","626","1440799","0.0-4.0-1.221","true"
"590","ImagesTennis/TR102.5.png","190","test",".","image-keyboard-response","628","1441900","0.0-4.0-1.222","true"
"825","ImagesTennis/TL95.png","190","test",".","image-keyboard-response","630","1443241","0.0-4.0-1.223","true"
"764","ImagesTennis/TL90.png","190","test",".","image-keyboard-response","632","1444526","0.0-4.0-1.224","true"
"1117","ImagesTennis/TR105.png","190","test",".","image-keyboard-response","634","1446152","0.0-4.0-1.225","true"
"605","ImagesTennis/TL92.5.png","190","test",".","image-keyboard-response","636","1447260","0.0-4.0-1.226","true"
"2000","ImagesDirect/VL107.5.png","188","test",",","image-keyboard-response","638","1449771","0.0-4.0-1.227","true"
"2538","ImagesTennis/TR107.5.png","190","test",".","image-keyboard-response","640","1452813","0.0-4.0-1.228","true"
"872","ImagesSoccer/VL105.png","188","test",",","image-keyboard-response","642","1454194","0.0-4.0-1.229","true"
"584","ImagesDirect/VL95.png","190","test",".","image-keyboard-response","644","1455308","0.0-4.0-1.230","true"
"565","ImagesSoccer/VR92.5.png","188","test",",","image-keyboard-response","646","1456388","0.0-4.0-1.231","true"
"789","ImagesDirect/VR100.png","190","test",".","image-keyboard-response","648","1457683","0.0-4.0-1.232","true"
"661","ImagesSoccer/VR105.png","190","test",".","image-keyboard-response","650","1458851","0.0-4.0-1.233","true"
"611","ImagesDirect/VR107.5.png","190","test",".","image-keyboard-response","652","1459969","0.0-4.0-1.234","true"
"849","ImagesTennis/TR110.png","190","test",".","image-keyboard-response","654","1461326","0.0-4.0-1.235","true"
"600","ImagesTennis/TR95.png","188","test",",","image-keyboard-response","656","1462441","0.0-4.0-1.236","true"
"750","ImagesSoccer/VR95.png","188","test",",","image-keyboard-response","658","1463699","0.0-4.0-1.237","true"
"1117","ImagesTennis/TL102.5.png","190","test",",","image-keyboard-response","660","1465337","0.0-4.0-1.238","false"
"1019","ImagesTennis/TR100.png","188","test",".","image-keyboard-response","662","1466870","0.0-4.0-1.239","false"
"779","ImagesDirect/VL90.png","190","test",".","image-keyboard-response","664","1468167","0.0-4.0-1.240","true"
"802","ImagesDirect/VR110.png","190","test",".","image-keyboard-response","666","1469479","0.0-4.0-1.241","true"
"715","ImagesSoccer/VL107.5.png","188","test",",","image-keyboard-response","668","1470699","0.0-4.0-1.242","true"
"1065","ImagesDirect/VR90.png","188","test",",","image-keyboard-response","670","1472269","0.0-4.0-1.243","true"
"1584","ImagesDirect/VL110.png","188","test",",","image-keyboard-response","672","1474357","0.0-4.0-1.244","true"
"1491","ImagesDirect/VR95.png","190","test",",","image-keyboard-response","674","1476353","0.0-4.0-1.245","false"
"998","ImagesDirect/VL102.5.png","188","test",",","image-keyboard-response","676","1477861","0.0-4.0-1.246","true"
"595","ImagesTennis/TL107.5.png","188","test",",","image-keyboard-response","678","1478960","0.0-4.0-1.247","true"
"967","ImagesDirect/VL97.5.png","190","test",".","image-keyboard-response","680","1480430","0.0-4.0-1.248","true"
"1834","ImagesDirect/VR92.5.png","190","test",",","image-keyboard-response","682","1482769","0.0-4.0-1.249","false"
"575","ImagesTennis/TR90.png","188","test",",","image-keyboard-response","684","1483856","0.0-4.0-1.250","true"
"572","ImagesDirect/VR97.5.png","190","test",",","image-keyboard-response","686","1484938","0.0-4.0-1.251","false"
"1254","ImagesSoccer/VL102.5.png","188","test",",","image-keyboard-response","688","1486699","0.0-4.0-1.252","true"
"559","ImagesTennis/TR97.5.png","190","test",",","image-keyboard-response","690","1487766","0.0-4.0-1.253","false"
"7486","ImagesDirect/VL100.png","188","test",".","image-keyboard-response","692","1495761","0.0-4.0-1.254","false"
"558","ImagesDirect/VL92.5.png","190","test",".","image-keyboard-response","694","1496833","0.0-4.0-1.255","true"
"740","ImagesSoccer/VL92.5.png","190","test",".","image-keyboard-response","696","1498084","0.0-4.0-1.256","true"
"1027","ImagesSoccer/VR100.png","190","test",".","image-keyboard-response","698","1499615","0.0-4.0-1.257","true"
"2506","ImagesSoccer/VL95.png","190","test",".","image-keyboard-response","700","1502631","0.0-4.0-1.258","true"
"797","ImagesDirect/VR102.5.png","190","test",".","image-keyboard-response","702","1503932","0.0-4.0-1.259","true"
"518","ImagesDirect/VR105.png","190","test",".","image-keyboard-response","704","1504957","0.0-4.0-1.260","true"
"1066","ImagesSoccer/VR97.5.png","188","test",",","image-keyboard-response","706","1506528","0.0-4.0-1.261","true"
"860","ImagesSoccer/VR102.5.png","190","test",".","image-keyboard-response","708","1507893","0.0-4.0-1.262","true"
"741","ImagesSoccer/VR110.png","190","test",".","image-keyboard-response","710","1509149","0.0-4.0-1.263","true"
"1060","ImagesSoccer/VL97.5.png","190","test",".","image-keyboard-response","712","1510726","0.0-4.0-1.264","true"
"762","ImagesSoccer/VR107.5.png","190","test",".","image-keyboard-response","714","1511995","0.0-4.0-1.265","true"
"894","ImagesTennis/TL105.png","188","test",",","image-keyboard-response","716","1513393","0.0-4.0-1.266","true"
"743","ImagesTennis/TL110.png","188","test",",","image-keyboard-response","718","1514649","0.0-4.0-1.267","true"
"700","ImagesTennis/TL97.5.png","190","test",".","image-keyboard-response","720","1515864","0.0-4.0-1.268","true"
"675","ImagesSoccer/VL90.png","190","test",".","image-keyboard-response","722","1517051","0.0-4.0-1.269","true"
