"rt","stimulus","key_press","test_part","correct_response","trial_type","trial_index","time_elapsed","internal_node_id","correct"
"3739","ImagesCoins/10R92.5.png","188","test",",","image-keyboard-response","4","24156","0.0-3.0-1.0","true"
"2169","ImagesCoins/10L102.5.png","188","test",",","image-keyboard-response","6","26829","0.0-3.0-1.1","true"
"4656","ImagesCoins/10R95.png","188","test",",","image-keyboard-response","8","31989","0.0-3.0-1.2","true"
"991","ImagesCoins/10L105.png","188","test",",","image-keyboard-response","10","33483","0.0-3.0-1.3","true"
"849","ImagesCoins/10R90.png","188","test",",","image-keyboard-response","12","34835","0.0-3.0-1.4","true"
"686","ImagesCoins/10L92.5.png","190","test",".","image-keyboard-response","14","36024","0.0-3.0-1.5","true"
"1174","ImagesCoins/10R102.5.png","190","test",".","image-keyboard-response","16","37701","0.0-3.0-1.6","true"
"991","ImagesCoins/10R107.5.png","190","test",".","image-keyboard-response","18","39195","0.0-3.0-1.7","true"
"675","ImagesCoins/10L90.png","190","test",".","image-keyboard-response","20","40373","0.0-3.0-1.8","true"
"649","ImagesCoins/10L107.5.png","188","test",",","image-keyboard-response","22","41526","0.0-3.0-1.9","true"
"606","ImagesCoins/10R100.png","190","test",".","image-keyboard-response","24","42635","0.0-3.0-1.10","true"
"2660","ImagesCoins/10R97.5.png","190","test",",","image-keyboard-response","26","45798","0.0-3.0-1.11","false"
"1038","ImagesCoins/10R105.png","190","test",".","image-keyboard-response","28","47339","0.0-3.0-1.12","true"
"776","ImagesCoins/10L97.5.png","190","test",".","image-keyboard-response","30","48618","0.0-3.0-1.13","true"
"727","ImagesCoins/10R110.png","190","test",".","image-keyboard-response","32","49849","0.0-3.0-1.14","true"
"989","ImagesCoins/10L100.png","188","test",".","image-keyboard-response","34","51341","0.0-3.0-1.15","false"
"979","ImagesCoins/10L95.png","190","test",".","image-keyboard-response","36","52823","0.0-3.0-1.16","true"
"671","ImagesCoins/10L110.png","188","test",",","image-keyboard-response","38","53997","0.0-3.0-1.17","true"
"654","ImagesCoins/10L97.5.png","190","test",".","image-keyboard-response","40","55155","0.0-3.0-1.18","true"
"901","ImagesCoins/10R102.5.png","190","test",".","image-keyboard-response","42","56558","0.0-3.0-1.19","true"
"585","ImagesCoins/10L92.5.png","190","test",".","image-keyboard-response","44","57646","0.0-3.0-1.20","true"
"703","ImagesCoins/10L105.png","188","test",",","image-keyboard-response","46","58853","0.0-3.0-1.21","true"
"687","ImagesCoins/10R110.png","190","test",".","image-keyboard-response","48","60044","0.0-3.0-1.22","true"
"572","ImagesCoins/10L110.png","188","test",",","image-keyboard-response","50","61119","0.0-3.0-1.23","true"
"1776","ImagesCoins/10R97.5.png","188","test",",","image-keyboard-response","52","63397","0.0-3.0-1.24","true"
"957","ImagesCoins/10R100.png","190","test",".","image-keyboard-response","54","64858","0.0-3.0-1.25","true"
"696","ImagesCoins/10L107.5.png","188","test",",","image-keyboard-response","56","66057","0.0-3.0-1.26","true"
"1625","ImagesCoins/10L100.png","188","test",".","image-keyboard-response","58","68184","0.0-3.0-1.27","false"
"2115","ImagesCoins/10L102.5.png","188","test",",","image-keyboard-response","60","70802","0.0-3.0-1.28","true"
"1476","ImagesCoins/10R107.5.png","190","test",".","image-keyboard-response","62","72780","0.0-3.0-1.29","true"
"1186","ImagesCoins/10L90.png","190","test",".","image-keyboard-response","64","74470","0.0-3.0-1.30","true"
"752","ImagesCoins/10R92.5.png","188","test",",","image-keyboard-response","66","75725","0.0-3.0-1.31","true"
"1555","ImagesCoins/10L95.png","188","test",".","image-keyboard-response","68","77781","0.0-3.0-1.32","false"
"655","ImagesCoins/10R90.png","188","test",",","image-keyboard-response","70","78941","0.0-3.0-1.33","true"
"1316","ImagesCoins/10R95.png","190","test",",","image-keyboard-response","72","80761","0.0-3.0-1.34","false"
"805","ImagesCoins/10R105.png","190","test",".","image-keyboard-response","74","82069","0.0-3.0-1.35","true"
"602","ImagesCoins/10R107.5.png","190","test",".","image-keyboard-response","76","83173","0.0-3.0-1.36","true"
"709","ImagesCoins/10R92.5.png","188","test",",","image-keyboard-response","78","84385","0.0-3.0-1.37","true"
"822","ImagesCoins/10L95.png","190","test",".","image-keyboard-response","80","85710","0.0-3.0-1.38","true"
"761","ImagesCoins/10R102.5.png","190","test",".","image-keyboard-response","82","86974","0.0-3.0-1.39","true"
"606","ImagesCoins/10L90.png","190","test",".","image-keyboard-response","84","88083","0.0-3.0-1.40","true"
"692","ImagesCoins/10R90.png","188","test",",","image-keyboard-response","86","89279","0.0-3.0-1.41","true"
"737","ImagesCoins/10R95.png","188","test",",","image-keyboard-response","88","90520","0.0-3.0-1.42","true"
"579","ImagesCoins/10L105.png","188","test",",","image-keyboard-response","90","91601","0.0-3.0-1.43","true"
"687","ImagesCoins/10L97.5.png","188","test",".","image-keyboard-response","92","92791","0.0-3.0-1.44","false"
"624","ImagesCoins/10L107.5.png","188","test",",","image-keyboard-response","94","93918","0.0-3.0-1.45","true"
"1310","ImagesCoins/10L92.5.png","190","test",".","image-keyboard-response","96","95731","0.0-3.0-1.46","true"
"643","ImagesCoins/10R105.png","190","test",".","image-keyboard-response","98","96877","0.0-3.0-1.47","true"
"518","ImagesCoins/10L100.png","188","test",".","image-keyboard-response","100","97898","0.0-3.0-1.48","false"
"472","ImagesCoins/10R97.5.png","190","test",",","image-keyboard-response","102","98874","0.0-3.0-1.49","false"
"541","ImagesCoins/10L110.png","188","test",",","image-keyboard-response","104","99919","0.0-3.0-1.50","true"
"580","ImagesCoins/10L102.5.png","190","test",",","image-keyboard-response","106","101002","0.0-3.0-1.51","false"
"1183","ImagesCoins/10R100.png","190","test",".","image-keyboard-response","108","102687","0.0-3.0-1.52","true"
"583","ImagesCoins/10R110.png","190","test",".","image-keyboard-response","110","103773","0.0-3.0-1.53","true"
"1134","ImagesCoins/10L97.5.png","190","test",".","image-keyboard-response","112","105409","0.0-3.0-1.54","true"
"1204","ImagesCoins/10L100.png","190","test",".","image-keyboard-response","114","107117","0.0-3.0-1.55","true"
"2363","ImagesCoins/10R100.png","190","test",".","image-keyboard-response","116","109983","0.0-3.0-1.56","true"
"646","ImagesCoins/10L92.5.png","190","test",".","image-keyboard-response","118","111131","0.0-3.0-1.57","true"
"640","ImagesCoins/10R102.5.png","190","test",".","image-keyboard-response","120","112274","0.0-3.0-1.58","true"
"899","ImagesCoins/10L107.5.png","188","test",",","image-keyboard-response","122","113676","0.0-3.0-1.59","true"
"1273","ImagesCoins/10R90.png","188","test",",","image-keyboard-response","124","115452","0.0-3.0-1.60","true"
"799","ImagesCoins/10L90.png","190","test",".","image-keyboard-response","126","116754","0.0-3.0-1.61","true"
"877","ImagesCoins/10R95.png","188","test",",","image-keyboard-response","128","118134","0.0-3.0-1.62","true"
"1570","ImagesCoins/10R97.5.png","190","test",",","image-keyboard-response","130","120206","0.0-3.0-1.63","false"
"561","ImagesCoins/10R105.png","190","test",".","image-keyboard-response","132","121271","0.0-3.0-1.64","true"
"828","ImagesCoins/10L105.png","188","test",",","image-keyboard-response","134","122601","0.0-3.0-1.65","true"
"592","ImagesCoins/10R107.5.png","190","test",".","image-keyboard-response","136","123697","0.0-3.0-1.66","true"
"816","ImagesCoins/10L102.5.png","188","test",",","image-keyboard-response","138","125016","0.0-3.0-1.67","true"
"1345","ImagesCoins/10L95.png","190","test",".","image-keyboard-response","140","126864","0.0-3.0-1.68","true"
"1005","ImagesCoins/10R92.5.png","188","test",",","image-keyboard-response","142","128371","0.0-3.0-1.69","true"
"577","ImagesCoins/10L110.png","188","test",",","image-keyboard-response","144","129451","0.0-3.0-1.70","true"
"686","ImagesCoins/10R110.png","190","test",".","image-keyboard-response","146","130640","0.0-3.0-1.71","true"
"782","ImagesCoins/10R92.5.png","188","test",",","image-keyboard-response","148","131925","0.0-3.0-1.72","true"
"1253","ImagesCoins/10L95.png","190","test",".","image-keyboard-response","150","133680","0.0-3.0-1.73","true"
"782","ImagesCoins/10R100.png","190","test",".","image-keyboard-response","152","134965","0.0-3.0-1.74","true"
"692","ImagesCoins/10L102.5.png","188","test",",","image-keyboard-response","154","136161","0.0-3.0-1.75","true"
"579","ImagesCoins/10L105.png","188","test",",","image-keyboard-response","156","137243","0.0-3.0-1.76","true"
"591","ImagesCoins/10R105.png","190","test",".","image-keyboard-response","158","138337","0.0-3.0-1.77","true"
"1013","ImagesCoins/10L100.png","190","test",".","image-keyboard-response","160","139852","0.0-3.0-1.78","true"
"616","ImagesCoins/10R110.png","190","test",".","image-keyboard-response","162","140970","0.0-3.0-1.79","true"
"2529","ImagesCoins/10R95.png","188","test",",","image-keyboard-response","164","144002","0.0-3.0-1.80","true"
"735","ImagesCoins/10R90.png","188","test",",","image-keyboard-response","166","145240","0.0-3.0-1.81","true"
"581","ImagesCoins/10L97.5.png","190","test",".","image-keyboard-response","168","146324","0.0-3.0-1.82","true"
"581","ImagesCoins/10L90.png","190","test",".","image-keyboard-response","170","147409","0.0-3.0-1.83","true"
"557","ImagesCoins/10L107.5.png","188","test",",","image-keyboard-response","172","148468","0.0-3.0-1.84","true"
"519","ImagesCoins/10R107.5.png","190","test",".","image-keyboard-response","174","149490","0.0-3.0-1.85","true"
"1124","ImagesCoins/10L92.5.png","190","test",".","image-keyboard-response","176","151117","0.0-3.0-1.86","true"
"711","ImagesCoins/10R97.5.png","188","test",",","image-keyboard-response","178","152331","0.0-3.0-1.87","true"
"494","ImagesCoins/10R102.5.png","190","test",".","image-keyboard-response","180","153328","0.0-3.0-1.88","true"
"590","ImagesCoins/10L110.png","188","test",",","image-keyboard-response","182","154421","0.0-3.0-1.89","true"
"2172","ImagesTennis/TR107.5.png","190","test",".","image-keyboard-response","184","157096","0.0-4.0-1.0","true"
"909","ImagesSoccer/VL110.png","188","test",",","image-keyboard-response","186","158507","0.0-4.0-1.1","true"
"1275","ImagesSoccer/VL102.5.png","188","test",",","image-keyboard-response","188","160285","0.0-4.0-1.2","true"
"1615","ImagesDirect/VL102.5.png","188","test",",","image-keyboard-response","190","162403","0.0-4.0-1.3","true"
"543","ImagesSoccer/VR107.5.png","190","test",".","image-keyboard-response","192","163449","0.0-4.0-1.4","true"
"1036","ImagesSoccer/VL107.5.png","188","test",",","image-keyboard-response","194","164988","0.0-4.0-1.5","true"
"515","ImagesTennis/TR105.png","190","test",".","image-keyboard-response","196","166007","0.0-4.0-1.6","true"
"682","ImagesTennis/TR95.png","188","test",",","image-keyboard-response","198","167192","0.0-4.0-1.7","true"
"655","ImagesTennis/TR97.5.png","188","test",",","image-keyboard-response","200","168351","0.0-4.0-1.8","true"
"804","ImagesTennis/TL107.5.png","188","test",",","image-keyboard-response","202","169658","0.0-4.0-1.9","true"
"1363","ImagesDirect/VR97.5.png","188","test",",","image-keyboard-response","204","171524","0.0-4.0-1.10","true"
"645","ImagesSoccer/VR110.png","190","test",".","image-keyboard-response","206","172672","0.0-4.0-1.11","true"
"646","ImagesSoccer/VL100.png","188","test",".","image-keyboard-response","208","173821","0.0-4.0-1.12","false"
"759","ImagesTennis/TL95.png","190","test",".","image-keyboard-response","210","175084","0.0-4.0-1.13","true"
"722","ImagesSoccer/VR92.5.png","188","test",",","image-keyboard-response","212","176309","0.0-4.0-1.14","true"
"1906","ImagesDirect/VL92.5.png","190","test",".","image-keyboard-response","214","178718","0.0-4.0-1.15","true"
"1110","ImagesTennis/TL100.png","188","test",".","image-keyboard-response","216","180331","0.0-4.0-1.16","false"
"800","ImagesDirect/VR100.png","190","test",".","image-keyboard-response","218","181635","0.0-4.0-1.17","true"
"1218","ImagesDirect/VR102.5.png","190","test",".","image-keyboard-response","220","183356","0.0-4.0-1.18","true"
"1257","ImagesTennis/TR102.5.png","190","test",".","image-keyboard-response","222","185117","0.0-4.0-1.19","true"
"598","ImagesDirect/VR110.png","190","test",".","image-keyboard-response","224","186218","0.0-4.0-1.20","true"
"517","ImagesDirect/VL90.png","190","test",".","image-keyboard-response","226","187239","0.0-4.0-1.21","true"
"654","ImagesDirect/VL105.png","188","test",",","image-keyboard-response","228","188396","0.0-4.0-1.22","true"
"583","ImagesTennis/TL110.png","188","test",",","image-keyboard-response","230","189482","0.0-4.0-1.23","true"
"962","ImagesDirect/VL95.png","188","test",".","image-keyboard-response","232","190947","0.0-4.0-1.24","false"
"796","ImagesDirect/VL100.png","188","test",".","image-keyboard-response","234","192246","0.0-4.0-1.25","false"
"653","ImagesDirect/VR95.png","190","test",",","image-keyboard-response","236","193402","0.0-4.0-1.26","false"
"716","ImagesDirect/VR105.png","190","test",".","image-keyboard-response","238","194621","0.0-4.0-1.27","true"
"934","ImagesDirect/VR107.5.png","190","test",".","image-keyboard-response","240","196058","0.0-4.0-1.28","true"
"1140","ImagesSoccer/VL95.png","190","test",".","image-keyboard-response","242","197700","0.0-4.0-1.29","true"
"765","ImagesTennis/TL90.png","190","test",".","image-keyboard-response","244","198968","0.0-4.0-1.30","true"
"1051","ImagesTennis/TR110.png","190","test",".","image-keyboard-response","246","200522","0.0-4.0-1.31","true"
"2330","ImagesSoccer/VR97.5.png","188","test",",","image-keyboard-response","248","203356","0.0-4.0-1.32","true"
"665","ImagesDirect/VL110.png","188","test",",","image-keyboard-response","250","204525","0.0-4.0-1.33","true"
"529","ImagesSoccer/VL97.5.png","188","test",".","image-keyboard-response","252","205557","0.0-4.0-1.34","false"
"640","ImagesTennis/TR90.png","188","test",",","image-keyboard-response","254","206701","0.0-4.0-1.35","true"
"1331","ImagesDirect/VR92.5.png","188","test",",","image-keyboard-response","256","208534","0.0-4.0-1.36","true"
"783","ImagesSoccer/VR95.png","188","test",",","image-keyboard-response","258","209821","0.0-4.0-1.37","true"
"799","ImagesTennis/TL97.5.png","190","test",".","image-keyboard-response","260","211122","0.0-4.0-1.38","true"
"901","ImagesSoccer/VR100.png","188","test",".","image-keyboard-response","262","212527","0.0-4.0-1.39","false"
"734","ImagesSoccer/VL105.png","188","test",",","image-keyboard-response","264","213764","0.0-4.0-1.40","true"
"602","ImagesDirect/VL107.5.png","188","test",",","image-keyboard-response","266","214869","0.0-4.0-1.41","true"
"1232","ImagesTennis/TR100.png","188","test",".","image-keyboard-response","268","216604","0.0-4.0-1.42","false"
"717","ImagesTennis/TL102.5.png","190","test",",","image-keyboard-response","270","217825","0.0-4.0-1.43","false"
"707","ImagesSoccer/VL92.5.png","190","test",".","image-keyboard-response","272","219035","0.0-4.0-1.44","true"
"629","ImagesSoccer/VR90.png","188","test",",","image-keyboard-response","274","220168","0.0-4.0-1.45","true"
"613","ImagesTennis/TL92.5.png","190","test",".","image-keyboard-response","276","221284","0.0-4.0-1.46","true"
"602","ImagesSoccer/VL90.png","190","test",".","image-keyboard-response","278","222389","0.0-4.0-1.47","true"
"810","ImagesTennis/TR92.5.png","188","test",",","image-keyboard-response","280","223702","0.0-4.0-1.48","true"
"1314","ImagesDirect/VR90.png","188","test",",","image-keyboard-response","282","225519","0.0-4.0-1.49","true"
"1134","ImagesTennis/TL105.png","188","test",",","image-keyboard-response","284","227156","0.0-4.0-1.50","true"
"1067","ImagesSoccer/VR102.5.png","188","test",".","image-keyboard-response","286","228727","0.0-4.0-1.51","false"
"1090","ImagesDirect/VL97.5.png","188","test",".","image-keyboard-response","288","230320","0.0-4.0-1.52","false"
"528","ImagesSoccer/VR105.png","190","test",".","image-keyboard-response","290","231350","0.0-4.0-1.53","true"
"1471","ImagesSoccer/VL100.png","188","test",".","image-keyboard-response","292","233324","0.0-4.0-1.54","false"
"624","ImagesTennis/TL92.5.png","190","test",".","image-keyboard-response","294","234450","0.0-4.0-1.55","true"
"1132","ImagesSoccer/VR100.png","190","test",".","image-keyboard-response","296","236084","0.0-4.0-1.56","true"
"572","ImagesSoccer/VL90.png","190","test",".","image-keyboard-response","298","237159","0.0-4.0-1.57","true"
"597","ImagesDirect/VR105.png","190","test",".","image-keyboard-response","300","238259","0.0-4.0-1.58","true"
"550","ImagesDirect/VR110.png","190","test",".","image-keyboard-response","302","239311","0.0-4.0-1.59","true"
"848","ImagesSoccer/VL110.png","188","test",",","image-keyboard-response","304","240663","0.0-4.0-1.60","true"
"1095","ImagesDirect/VR90.png","188","test",",","image-keyboard-response","306","242260","0.0-4.0-1.61","true"
"560","ImagesDirect/VR95.png","188","test",",","image-keyboard-response","308","243323","0.0-4.0-1.62","true"
"997","ImagesSoccer/VR95.png","188","test",",","image-keyboard-response","310","244822","0.0-4.0-1.63","true"
"602","ImagesSoccer/VR92.5.png","188","test",",","image-keyboard-response","312","245927","0.0-4.0-1.64","true"
"610","ImagesTennis/TR90.png","188","test",",","image-keyboard-response","314","247039","0.0-4.0-1.65","true"
"1046","ImagesSoccer/VR97.5.png","190","test",",","image-keyboard-response","316","248588","0.0-4.0-1.66","false"
"779","ImagesTennis/TL102.5.png","190","test",",","image-keyboard-response","318","249870","0.0-4.0-1.67","false"
"814","ImagesSoccer/VR107.5.png","190","test",".","image-keyboard-response","320","251187","0.0-4.0-1.68","true"
"740","ImagesTennis/TR100.png","190","test",".","image-keyboard-response","322","252430","0.0-4.0-1.69","true"
"1140","ImagesSoccer/VL95.png","190","test",".","image-keyboard-response","324","254073","0.0-4.0-1.70","true"
"661","ImagesTennis/TL105.png","188","test",",","image-keyboard-response","326","255237","0.0-4.0-1.71","true"
"618","ImagesTennis/TR107.5.png","190","test",".","image-keyboard-response","328","256358","0.0-4.0-1.72","true"
"820","ImagesTennis/TL95.png","190","test",".","image-keyboard-response","330","257681","0.0-4.0-1.73","true"
"591","ImagesSoccer/VL102.5.png","188","test",",","image-keyboard-response","332","258775","0.0-4.0-1.74","true"
"708","ImagesTennis/TL107.5.png","188","test",",","image-keyboard-response","334","259986","0.0-4.0-1.75","true"
"649","ImagesTennis/TL97.5.png","190","test",".","image-keyboard-response","336","261137","0.0-4.0-1.76","true"
"1564","ImagesDirect/VR92.5.png","188","test",",","image-keyboard-response","338","263204","0.0-4.0-1.77","true"
"524","ImagesSoccer/VR102.5.png","190","test",".","image-keyboard-response","340","264231","0.0-4.0-1.78","true"
"603","ImagesDirect/VL92.5.png","190","test",".","image-keyboard-response","342","265335","0.0-4.0-1.79","true"
"677","ImagesTennis/TR95.png","188","test",",","image-keyboard-response","344","266515","0.0-4.0-1.80","true"
"575","ImagesSoccer/VL92.5.png","190","test",".","image-keyboard-response","346","267593","0.0-4.0-1.81","true"
"567","ImagesTennis/TL90.png","190","test",".","image-keyboard-response","348","268663","0.0-4.0-1.82","true"
"967","ImagesDirect/VR97.5.png","190","test",",","image-keyboard-response","350","270134","0.0-4.0-1.83","false"
"543","ImagesDirect/VL102.5.png","188","test",",","image-keyboard-response","352","271179","0.0-4.0-1.84","true"
"586","ImagesDirect/VL90.png","190","test",".","image-keyboard-response","354","272268","0.0-4.0-1.85","true"
"466","ImagesDirect/VR102.5.png","190","test",".","image-keyboard-response","356","273238","0.0-4.0-1.86","true"
"568","ImagesTennis/TR97.5.png","188","test",",","image-keyboard-response","358","274309","0.0-4.0-1.87","true"
"514","ImagesTennis/TL100.png","190","test",".","image-keyboard-response","360","275325","0.0-4.0-1.88","true"
"991","ImagesSoccer/VR105.png","190","test",".","image-keyboard-response","362","276819","0.0-4.0-1.89","true"
"1606","ImagesDirect/VL97.5.png","190","test",".","image-keyboard-response","364","278927","0.0-4.0-1.90","true"
"1086","ImagesDirect/VL110.png","188","test",",","image-keyboard-response","366","280516","0.0-4.0-1.91","true"
"1081","ImagesDirect/VL100.png","190","test",".","image-keyboard-response","368","282101","0.0-4.0-1.92","true"
"513","ImagesDirect/VR107.5.png","190","test",".","image-keyboard-response","370","283116","0.0-4.0-1.93","true"
"698","ImagesSoccer/VR90.png","188","test",",","image-keyboard-response","372","284317","0.0-4.0-1.94","true"
"2250","ImagesSoccer/VL97.5.png","190","test",".","image-keyboard-response","374","287070","0.0-4.0-1.95","true"
"591","ImagesTennis/TL110.png","188","test",",","image-keyboard-response","376","288164","0.0-4.0-1.96","true"
"689","ImagesDirect/VL95.png","190","test",".","image-keyboard-response","378","289356","0.0-4.0-1.97","true"
"618","ImagesTennis/TR92.5.png","188","test",",","image-keyboard-response","380","290477","0.0-4.0-1.98","true"
"649","ImagesDirect/VL105.png","188","test",",","image-keyboard-response","382","291628","0.0-4.0-1.99","true"
"501","ImagesSoccer/VR110.png","190","test",".","image-keyboard-response","384","292633","0.0-4.0-1.100","true"
"750","ImagesDirect/VL107.5.png","188","test",",","image-keyboard-response","386","293885","0.0-4.0-1.101","true"
"493","ImagesTennis/TR105.png","190","test",".","image-keyboard-response","388","294881","0.0-4.0-1.102","true"
"509","ImagesSoccer/VL107.5.png","188","test",",","image-keyboard-response","390","295892","0.0-4.0-1.103","true"
"601","ImagesDirect/VR100.png","190","test",".","image-keyboard-response","392","296996","0.0-4.0-1.104","true"
"546","ImagesTennis/TR102.5.png","190","test",".","image-keyboard-response","394","298044","0.0-4.0-1.105","true"
"845","ImagesTennis/TR110.png","190","test",".","image-keyboard-response","396","299392","0.0-4.0-1.106","true"
"570","ImagesSoccer/VL105.png","188","test",",","image-keyboard-response","398","300466","0.0-4.0-1.107","true"
"623","ImagesSoccer/VR102.5.png","190","test",".","image-keyboard-response","400","301591","0.0-4.0-1.108","true"
"669","ImagesSoccer/VR105.png","190","test",".","image-keyboard-response","402","302763","0.0-4.0-1.109","true"
"973","ImagesTennis/TL110.png","188","test",",","image-keyboard-response","404","304239","0.0-4.0-1.110","true"
"653","ImagesTennis/TL92.5.png","190","test",".","image-keyboard-response","406","305394","0.0-4.0-1.111","true"
"789","ImagesDirect/VL90.png","190","test",".","image-keyboard-response","408","306686","0.0-4.0-1.112","true"
"2554","ImagesSoccer/VR100.png","190","test",".","image-keyboard-response","410","309743","0.0-4.0-1.113","true"
"532","ImagesTennis/TR102.5.png","190","test",".","image-keyboard-response","412","310778","0.0-4.0-1.114","true"
"540","ImagesSoccer/VL107.5.png","190","test",",","image-keyboard-response","414","311821","0.0-4.0-1.115","false"
"560","ImagesDirect/VR97.5.png","190","test",",","image-keyboard-response","416","312884","0.0-4.0-1.116","false"
"899","ImagesTennis/TL107.5.png","188","test",",","image-keyboard-response","418","314285","0.0-4.0-1.117","true"
"2351","ImagesDirect/VL95.png","188","test",".","image-keyboard-response","420","317139","0.0-4.0-1.118","false"
"925","ImagesTennis/TR90.png","188","test",",","image-keyboard-response","422","318566","0.0-4.0-1.119","true"
"1390","ImagesSoccer/VL100.png","188","test",".","image-keyboard-response","424","320459","0.0-4.0-1.120","false"
"560","ImagesTennis/TL97.5.png","190","test",".","image-keyboard-response","426","321521","0.0-4.0-1.121","true"
"607","ImagesSoccer/VR107.5.png","190","test",".","image-keyboard-response","428","322630","0.0-4.0-1.122","true"
"545","ImagesDirect/VL110.png","188","test",",","image-keyboard-response","430","323679","0.0-4.0-1.123","true"
"653","ImagesDirect/VL92.5.png","190","test",".","image-keyboard-response","432","324834","0.0-4.0-1.124","true"
"688","ImagesSoccer/VL92.5.png","190","test",".","image-keyboard-response","434","326024","0.0-4.0-1.125","true"
"524","ImagesTennis/TL95.png","190","test",".","image-keyboard-response","436","327051","0.0-4.0-1.126","true"
"706","ImagesSoccer/VR95.png","188","test",",","image-keyboard-response","438","328260","0.0-4.0-1.127","true"
"580","ImagesDirect/VL105.png","188","test",",","image-keyboard-response","440","329343","0.0-4.0-1.128","true"
"509","ImagesTennis/TR92.5.png","188","test",",","image-keyboard-response","442","330355","0.0-4.0-1.129","true"
"490","ImagesSoccer/VL90.png","190","test",".","image-keyboard-response","444","331347","0.0-4.0-1.130","true"
"591","ImagesSoccer/VL97.5.png","190","test",".","image-keyboard-response","446","332441","0.0-4.0-1.131","true"
"569","ImagesDirect/VL102.5.png","188","test",",","image-keyboard-response","448","333511","0.0-4.0-1.132","true"
"642","ImagesTennis/TL100.png","190","test",".","image-keyboard-response","450","334655","0.0-4.0-1.133","true"
"443","ImagesTennis/TL90.png","190","test",".","image-keyboard-response","452","335600","0.0-4.0-1.134","true"
"525","ImagesSoccer/VR90.png","188","test",",","image-keyboard-response","454","336627","0.0-4.0-1.135","true"
"1126","ImagesSoccer/VL105.png","188","test",",","image-keyboard-response","456","338255","0.0-4.0-1.136","true"
"481","ImagesDirect/VR100.png","190","test",".","image-keyboard-response","458","339240","0.0-4.0-1.137","true"
"539","ImagesDirect/VR102.5.png","190","test",".","image-keyboard-response","460","340282","0.0-4.0-1.138","true"
"485","ImagesDirect/VR95.png","190","test",",","image-keyboard-response","462","341269","0.0-4.0-1.139","false"
"477","ImagesTennis/TR95.png","188","test",",","image-keyboard-response","464","342249","0.0-4.0-1.140","true"
"683","ImagesTennis/TR110.png","190","test",".","image-keyboard-response","466","343435","0.0-4.0-1.141","true"
"614","ImagesTennis/TR105.png","190","test",".","image-keyboard-response","468","344550","0.0-4.0-1.142","true"
"1291","ImagesSoccer/VL102.5.png","188","test",",","image-keyboard-response","470","346344","0.0-4.0-1.143","true"
"477","ImagesDirect/VR110.png","190","test",".","image-keyboard-response","472","347323","0.0-4.0-1.144","true"
"543","ImagesTennis/TR100.png","188","test",".","image-keyboard-response","474","348370","0.0-4.0-1.145","false"
"664","ImagesSoccer/VL95.png","190","test",".","image-keyboard-response","476","349537","0.0-4.0-1.146","true"
"548","ImagesDirect/VR105.png","190","test",".","image-keyboard-response","478","350587","0.0-4.0-1.147","true"
"711","ImagesSoccer/VL110.png","188","test",",","image-keyboard-response","480","351800","0.0-4.0-1.148","true"
"1196","ImagesDirect/VR90.png","190","test",",","image-keyboard-response","482","353498","0.0-4.0-1.149","false"
"826","ImagesTennis/TR97.5.png","190","test",",","image-keyboard-response","484","354827","0.0-4.0-1.150","false"
"706","ImagesTennis/TL102.5.png","190","test",",","image-keyboard-response","486","356036","0.0-4.0-1.151","false"
"576","ImagesSoccer/VR110.png","190","test",".","image-keyboard-response","488","357114","0.0-4.0-1.152","true"
"658","ImagesTennis/TL105.png","188","test",",","image-keyboard-response","490","358275","0.0-4.0-1.153","true"
"669","ImagesTennis/TR107.5.png","190","test",".","image-keyboard-response","492","359446","0.0-4.0-1.154","true"
"1214","ImagesSoccer/VR97.5.png","190","test",",","image-keyboard-response","494","361163","0.0-4.0-1.155","false"
"514","ImagesDirect/VR107.5.png","190","test",".","image-keyboard-response","496","362180","0.0-4.0-1.156","true"
"552","ImagesDirect/VR92.5.png","188","test",",","image-keyboard-response","498","363234","0.0-4.0-1.157","true"
"696","ImagesSoccer/VR92.5.png","188","test",",","image-keyboard-response","500","364433","0.0-4.0-1.158","true"
"538","ImagesDirect/VL107.5.png","188","test",",","image-keyboard-response","502","365474","0.0-4.0-1.159","true"
"1303","ImagesDirect/VL100.png","188","test",".","image-keyboard-response","504","367280","0.0-4.0-1.160","false"
"748","ImagesDirect/VL97.5.png","190","test",".","image-keyboard-response","506","368531","0.0-4.0-1.161","true"
"693","ImagesTennis/TR102.5.png","190","test",".","image-keyboard-response","508","369727","0.0-4.0-1.162","true"
"1389","ImagesSoccer/VR97.5.png","190","test",",","image-keyboard-response","510","371620","0.0-4.0-1.163","false"
"660","ImagesTennis/TL95.png","190","test",".","image-keyboard-response","512","372782","0.0-4.0-1.164","true"
"631","ImagesTennis/TL90.png","190","test",".","image-keyboard-response","514","373916","0.0-4.0-1.165","true"
"712","ImagesSoccer/VL110.png","188","test",",","image-keyboard-response","516","375131","0.0-4.0-1.166","true"
"906","ImagesDirect/VL107.5.png","188","test",",","image-keyboard-response","518","376539","0.0-4.0-1.167","true"
"1633","ImagesDirect/VR90.png","188","test",",","image-keyboard-response","520","378674","0.0-4.0-1.168","true"
"591","ImagesSoccer/VR110.png","190","test",".","image-keyboard-response","522","379769","0.0-4.0-1.169","true"
"598","ImagesDirect/VL100.png","188","test",".","image-keyboard-response","524","380868","0.0-4.0-1.170","false"
"855","ImagesSoccer/VR95.png","188","test",",","image-keyboard-response","526","382227","0.0-4.0-1.171","true"
"496","ImagesSoccer/VR102.5.png","190","test",".","image-keyboard-response","528","383225","0.0-4.0-1.172","true"
"593","ImagesSoccer/VL90.png","190","test",".","image-keyboard-response","530","384321","0.0-4.0-1.173","true"
"550","ImagesDirect/VL102.5.png","188","test",",","image-keyboard-response","532","385375","0.0-4.0-1.174","true"
"573","ImagesTennis/TL110.png","188","test",",","image-keyboard-response","534","386451","0.0-4.0-1.175","true"
"589","ImagesTennis/TR107.5.png","190","test",".","image-keyboard-response","536","387542","0.0-4.0-1.176","true"
"462","ImagesSoccer/VR105.png","190","test",".","image-keyboard-response","538","388507","0.0-4.0-1.177","true"
"438","ImagesSoccer/VR107.5.png","190","test",".","image-keyboard-response","540","389447","0.0-4.0-1.178","true"
"1158","ImagesTennis/TL102.5.png","190","test",",","image-keyboard-response","542","391109","0.0-4.0-1.179","false"
"803","ImagesTennis/TL105.png","188","test",",","image-keyboard-response","544","392414","0.0-4.0-1.180","true"
"656","ImagesSoccer/VL92.5.png","190","test",".","image-keyboard-response","546","393573","0.0-4.0-1.181","true"
"550","ImagesTennis/TR92.5.png","188","test",",","image-keyboard-response","548","394626","0.0-4.0-1.182","true"
"524","ImagesTennis/TR110.png","190","test",".","image-keyboard-response","550","395652","0.0-4.0-1.183","true"
"484","ImagesDirect/VR102.5.png","190","test",".","image-keyboard-response","552","396639","0.0-4.0-1.184","true"
"580","ImagesSoccer/VL95.png","190","test",".","image-keyboard-response","554","397722","0.0-4.0-1.185","true"
"705","ImagesDirect/VL97.5.png","190","test",".","image-keyboard-response","556","398929","0.0-4.0-1.186","true"
"810","ImagesDirect/VL92.5.png","188","test",".","image-keyboard-response","558","400242","0.0-4.0-1.187","false"
"626","ImagesDirect/VL95.png","190","test",".","image-keyboard-response","560","401371","0.0-4.0-1.188","true"
"823","ImagesSoccer/VR92.5.png","188","test",",","image-keyboard-response","562","402697","0.0-4.0-1.189","true"
"687","ImagesTennis/TL92.5.png","190","test",".","image-keyboard-response","564","403887","0.0-4.0-1.190","true"
"642","ImagesDirect/VL105.png","188","test",",","image-keyboard-response","566","405032","0.0-4.0-1.191","true"
"698","ImagesDirect/VL90.png","190","test",".","image-keyboard-response","568","406232","0.0-4.0-1.192","true"
"550","ImagesTennis/TL97.5.png","190","test",".","image-keyboard-response","570","407286","0.0-4.0-1.193","true"
"563","ImagesTennis/TR105.png","190","test",".","image-keyboard-response","572","408351","0.0-4.0-1.194","true"
"764","ImagesSoccer/VR90.png","190","test",",","image-keyboard-response","574","409617","0.0-4.0-1.195","false"
"525","ImagesTennis/TL100.png","190","test",".","image-keyboard-response","576","410644","0.0-4.0-1.196","true"
"652","ImagesSoccer/VL100.png","190","test",".","image-keyboard-response","578","411798","0.0-4.0-1.197","true"
"453","ImagesDirect/VR105.png","190","test",".","image-keyboard-response","580","412754","0.0-4.0-1.198","true"
"781","ImagesDirect/VR107.5.png","190","test",".","image-keyboard-response","582","414038","0.0-4.0-1.199","true"
"247","ImagesTennis/TR90.png","190","test",",","image-keyboard-response","584","414788","0.0-4.0-1.200","false"
"912","ImagesSoccer/VL107.5.png","188","test",",","image-keyboard-response","586","416203","0.0-4.0-1.201","true"
"528","ImagesDirect/VR110.png","190","test",".","image-keyboard-response","588","417235","0.0-4.0-1.202","true"
"539","ImagesDirect/VL110.png","188","test",",","image-keyboard-response","590","418276","0.0-4.0-1.203","true"
"542","ImagesTennis/TR97.5.png","190","test",",","image-keyboard-response","592","419321","0.0-4.0-1.204","false"
"948","ImagesSoccer/VL102.5.png","188","test",",","image-keyboard-response","594","420771","0.0-4.0-1.205","true"
"717","ImagesDirect/VR100.png","190","test",".","image-keyboard-response","596","421991","0.0-4.0-1.206","true"
"1072","ImagesSoccer/VL97.5.png","188","test",".","image-keyboard-response","598","423566","0.0-4.0-1.207","false"
"544","ImagesSoccer/VL105.png","190","test",",","image-keyboard-response","600","424613","0.0-4.0-1.208","false"
"1006","ImagesDirect/VR97.5.png","190","test",",","image-keyboard-response","602","426122","0.0-4.0-1.209","false"
"956","ImagesTennis/TR95.png","188","test",",","image-keyboard-response","604","427581","0.0-4.0-1.210","true"
"891","ImagesTennis/TL107.5.png","188","test",",","image-keyboard-response","606","428975","0.0-4.0-1.211","true"
"661","ImagesDirect/VR95.png","188","test",",","image-keyboard-response","608","430139","0.0-4.0-1.212","true"
"1409","ImagesSoccer/VR100.png","190","test",".","image-keyboard-response","610","432051","0.0-4.0-1.213","true"
"1067","ImagesTennis/TR100.png","188","test",".","image-keyboard-response","612","433621","0.0-4.0-1.214","false"
"1186","ImagesDirect/VR92.5.png","188","test",",","image-keyboard-response","614","435309","0.0-4.0-1.215","true"
"1010","ImagesDirect/VR90.png","188","test",",","image-keyboard-response","616","436821","0.0-4.0-1.216","true"
"775","ImagesTennis/TR100.png","188","test",".","image-keyboard-response","618","438098","0.0-4.0-1.217","false"
"604","ImagesDirect/VR110.png","190","test",".","image-keyboard-response","620","439204","0.0-4.0-1.218","true"
"527","ImagesSoccer/VR100.png","190","test",".","image-keyboard-response","622","440235","0.0-4.0-1.219","true"
"506","ImagesSoccer/VL97.5.png","188","test",".","image-keyboard-response","624","441243","0.0-4.0-1.220","false"
"500","ImagesTennis/TR110.png","190","test",".","image-keyboard-response","626","442245","0.0-4.0-1.221","true"
"463","ImagesSoccer/VR92.5.png","190","test",",","image-keyboard-response","628","443210","0.0-4.0-1.222","false"
"507","ImagesTennis/TL95.png","190","test",".","image-keyboard-response","630","444220","0.0-4.0-1.223","true"
"570","ImagesSoccer/VR110.png","190","test",".","image-keyboard-response","632","445292","0.0-4.0-1.224","true"
"896","ImagesTennis/TR102.5.png","188","test",".","image-keyboard-response","634","446690","0.0-4.0-1.225","false"
"869","ImagesDirect/VL102.5.png","188","test",",","image-keyboard-response","636","448062","0.0-4.0-1.226","true"
"471","ImagesTennis/TL97.5.png","190","test",".","image-keyboard-response","638","449034","0.0-4.0-1.227","true"
"471","ImagesTennis/TL107.5.png","190","test",",","image-keyboard-response","640","450008","0.0-4.0-1.228","false"
"2003","ImagesSoccer/VL95.png","190","test",".","image-keyboard-response","642","452514","0.0-4.0-1.229","true"
"1344","ImagesTennis/TL102.5.png","188","test",",","image-keyboard-response","644","454361","0.0-4.0-1.230","true"
"905","ImagesTennis/TR90.png","188","test",",","image-keyboard-response","646","455769","0.0-4.0-1.231","true"
"529","ImagesTennis/TR95.png","188","test",",","image-keyboard-response","648","456801","0.0-4.0-1.232","true"
"673","ImagesDirect/VL110.png","188","test",",","image-keyboard-response","650","457976","0.0-4.0-1.233","true"
"798","ImagesTennis/TR107.5.png","188","test",".","image-keyboard-response","652","459277","0.0-4.0-1.234","false"
"730","ImagesDirect/VR95.png","188","test",",","image-keyboard-response","654","460510","0.0-4.0-1.235","true"
"597","ImagesSoccer/VL107.5.png","188","test",",","image-keyboard-response","656","461611","0.0-4.0-1.236","true"
"603","ImagesDirect/VR97.5.png","188","test",",","image-keyboard-response","658","462716","0.0-4.0-1.237","true"
"683","ImagesTennis/TR97.5.png","188","test",",","image-keyboard-response","660","463902","0.0-4.0-1.238","true"
"584","ImagesDirect/VL105.png","188","test",",","image-keyboard-response","662","464989","0.0-4.0-1.239","true"
"484","ImagesSoccer/VL110.png","188","test",",","image-keyboard-response","664","465976","0.0-4.0-1.240","true"
"597","ImagesDirect/VR100.png","190","test",".","image-keyboard-response","666","467076","0.0-4.0-1.241","true"
"549","ImagesTennis/TL92.5.png","190","test",".","image-keyboard-response","668","468129","0.0-4.0-1.242","true"
"444","ImagesTennis/TL90.png","190","test",".","image-keyboard-response","670","469076","0.0-4.0-1.243","true"
"565","ImagesTennis/TR105.png","190","test",".","image-keyboard-response","672","470143","0.0-4.0-1.244","true"
"595","ImagesTennis/TL110.png","188","test",",","image-keyboard-response","674","471242","0.0-4.0-1.245","true"
"566","ImagesTennis/TL105.png","188","test",",","image-keyboard-response","676","472310","0.0-4.0-1.246","true"
"628","ImagesSoccer/VL100.png","188","test",".","image-keyboard-response","678","473448","0.0-4.0-1.247","false"
"564","ImagesSoccer/VR95.png","190","test",",","image-keyboard-response","680","474515","0.0-4.0-1.248","false"
"711","ImagesDirect/VR92.5.png","188","test",",","image-keyboard-response","682","475730","0.0-4.0-1.249","true"
"664","ImagesTennis/TL100.png","190","test",".","image-keyboard-response","684","476897","0.0-4.0-1.250","true"
"465","ImagesDirect/VR107.5.png","190","test",".","image-keyboard-response","686","477865","0.0-4.0-1.251","true"
"667","ImagesSoccer/VR90.png","188","test",",","image-keyboard-response","688","479036","0.0-4.0-1.252","true"
"742","ImagesSoccer/VR105.png","190","test",".","image-keyboard-response","690","480281","0.0-4.0-1.253","true"
"658","ImagesSoccer/VL92.5.png","190","test",".","image-keyboard-response","692","481442","0.0-4.0-1.254","true"
"1177","ImagesSoccer/VR102.5.png","190","test",".","image-keyboard-response","694","483122","0.0-4.0-1.255","true"
"502","ImagesSoccer/VR107.5.png","190","test",".","image-keyboard-response","696","484127","0.0-4.0-1.256","true"
"761","ImagesSoccer/VL105.png","188","test",",","image-keyboard-response","698","485391","0.0-4.0-1.257","true"
"1334","ImagesDirect/VL97.5.png","188","test",".","image-keyboard-response","700","487228","0.0-4.0-1.258","false"
"453","ImagesSoccer/VL102.5.png","188","test",",","image-keyboard-response","702","488184","0.0-4.0-1.259","true"
"608","ImagesDirect/VR105.png","190","test",".","image-keyboard-response","704","489294","0.0-4.0-1.260","true"
"619","ImagesSoccer/VL90.png","190","test",".","image-keyboard-response","706","490416","0.0-4.0-1.261","true"
"500","ImagesTennis/TR92.5.png","188","test",",","image-keyboard-response","708","491419","0.0-4.0-1.262","true"
"587","ImagesDirect/VL107.5.png","188","test",",","image-keyboard-response","710","492509","0.0-4.0-1.263","true"
"1890","ImagesDirect/VL95.png","190","test",".","image-keyboard-response","712","494902","0.0-4.0-1.264","true"
"521","ImagesDirect/VL100.png","188","test",".","image-keyboard-response","714","495926","0.0-4.0-1.265","false"
"540","ImagesDirect/VR102.5.png","190","test",".","image-keyboard-response","716","496969","0.0-4.0-1.266","true"
"680","ImagesDirect/VL90.png","190","test",".","image-keyboard-response","718","498152","0.0-4.0-1.267","true"
"843","ImagesDirect/VL92.5.png","188","test",".","image-keyboard-response","720","499500","0.0-4.0-1.268","false"
"743","ImagesSoccer/VR97.5.png","190","test",",","image-keyboard-response","722","500747","0.0-4.0-1.269","false"
