"rt","stimulus","key_press","test_part","correct_response","trial_type","trial_index","time_elapsed","internal_node_id","correct"
"2135","ImagesTennis/TR92.5.png","188","test",",","image-keyboard-response","4","21111","0.0-3.0-1.0","true"
"2652","ImagesSoccer/VR92.5.png","190","test",",","image-keyboard-response","6","24270","0.0-3.0-1.1","false"
"1199","ImagesSoccer/VL95.png","188","test",".","image-keyboard-response","8","25977","0.0-3.0-1.2","false"
"4078","ImagesDirect/VL95.png","188","test",".","image-keyboard-response","10","30562","0.0-3.0-1.3","false"
"709","ImagesSoccer/VL110.png","188","test",",","image-keyboard-response","12","31777","0.0-3.0-1.4","true"
"558","ImagesSoccer/VR90.png","190","test",",","image-keyboard-response","14","32842","0.0-3.0-1.5","false"
"1062","ImagesDirect/VR97.5.png","190","test",",","image-keyboard-response","16","34411","0.0-3.0-1.6","false"
"699","ImagesTennis/TL110.png","188","test",",","image-keyboard-response","18","35618","0.0-3.0-1.7","true"
"1312","ImagesDirect/VR105.png","190","test",".","image-keyboard-response","20","37437","0.0-3.0-1.8","true"
"1305","ImagesDirect/VR95.png","188","test",",","image-keyboard-response","22","39249","0.0-3.0-1.9","true"
"907","ImagesDirect/VR107.5.png","190","test",".","image-keyboard-response","24","40663","0.0-3.0-1.10","true"
"1356","ImagesDirect/VL102.5.png","188","test",",","image-keyboard-response","26","42526","0.0-3.0-1.11","true"
"1098","ImagesSoccer/VR105.png","190","test",".","image-keyboard-response","28","44131","0.0-3.0-1.12","true"
"1631","ImagesDirect/VL107.5.png","188","test",",","image-keyboard-response","30","46268","0.0-3.0-1.13","true"
"1554","ImagesDirect/VR102.5.png","190","test",".","image-keyboard-response","32","48330","0.0-3.0-1.14","true"
"1050","ImagesTennis/TL100.png","190","test",".","image-keyboard-response","34","49886","0.0-3.0-1.15","true"
"1920","ImagesTennis/TL97.5.png","190","test",".","image-keyboard-response","36","52313","0.0-3.0-1.16","true"
"2690","ImagesDirect/VL92.5.png","190","test",".","image-keyboard-response","38","55510","0.0-3.0-1.17","true"
"1844","ImagesSoccer/VL97.5.png","188","test",".","image-keyboard-response","40","57861","0.0-3.0-1.18","false"
"816","ImagesDirect/VL90.png","190","test",".","image-keyboard-response","42","59184","0.0-3.0-1.19","true"
"570","ImagesDirect/VL110.png","188","test",",","image-keyboard-response","44","60260","0.0-3.0-1.20","true"
"531","ImagesSoccer/VR97.5.png","190","test",",","image-keyboard-response","46","61298","0.0-3.0-1.21","false"
"904","ImagesTennis/TR95.png","188","test",",","image-keyboard-response","48","62709","0.0-3.0-1.22","true"
"482","ImagesSoccer/VR107.5.png","190","test",".","image-keyboard-response","50","63698","0.0-3.0-1.23","true"
"508","ImagesSoccer/VR95.png","190","test",",","image-keyboard-response","52","64713","0.0-3.0-1.24","false"
"474","ImagesTennis/TR102.5.png","190","test",".","image-keyboard-response","54","65694","0.0-3.0-1.25","true"
"332","ImagesSoccer/VR100.png","188","test",".","image-keyboard-response","56","66533","0.0-3.0-1.26","false"
"542","ImagesDirect/VL97.5.png","190","test",".","image-keyboard-response","58","67581","0.0-3.0-1.27","true"
"532","ImagesTennis/TR97.5.png","190","test",",","image-keyboard-response","60","68620","0.0-3.0-1.28","false"
"585","ImagesTennis/TR90.png","188","test",",","image-keyboard-response","62","69712","0.0-3.0-1.29","true"
"466","ImagesDirect/VR92.5.png","190","test",",","image-keyboard-response","64","70684","0.0-3.0-1.30","false"
"642","ImagesTennis/TL90.png","188","test",".","image-keyboard-response","66","71834","0.0-3.0-1.31","false"
"1044","ImagesTennis/TR105.png","188","test",".","image-keyboard-response","68","73384","0.0-3.0-1.32","false"
"562","ImagesTennis/TR100.png","190","test",".","image-keyboard-response","70","74453","0.0-3.0-1.33","true"
"616","ImagesTennis/TR110.png","190","test",".","image-keyboard-response","72","75575","0.0-3.0-1.34","true"
"664","ImagesTennis/TL102.5.png","188","test",",","image-keyboard-response","74","76746","0.0-3.0-1.35","true"
"590","ImagesSoccer/VL100.png","188","test",".","image-keyboard-response","76","77842","0.0-3.0-1.36","false"
"547","ImagesDirect/VL100.png","188","test",".","image-keyboard-response","78","78896","0.0-3.0-1.37","false"
"680","ImagesTennis/TL95.png","190","test",".","image-keyboard-response","80","80082","0.0-3.0-1.38","true"
"621","ImagesDirect/VR100.png","190","test",".","image-keyboard-response","82","81210","0.0-3.0-1.39","true"
"669","ImagesTennis/TR107.5.png","190","test",".","image-keyboard-response","84","82386","0.0-3.0-1.40","true"
"529","ImagesDirect/VR90.png","190","test",",","image-keyboard-response","86","83422","0.0-3.0-1.41","false"
"546","ImagesSoccer/VL107.5.png","188","test",",","image-keyboard-response","88","84475","0.0-3.0-1.42","true"
"488","ImagesSoccer/VR110.png","190","test",".","image-keyboard-response","90","85470","0.0-3.0-1.43","true"
"595","ImagesDirect/VR110.png","190","test",".","image-keyboard-response","92","86572","0.0-3.0-1.44","true"
"871","ImagesSoccer/VL105.png","188","test",",","image-keyboard-response","94","87949","0.0-3.0-1.45","true"
"465","ImagesSoccer/VR102.5.png","190","test",".","image-keyboard-response","96","88920","0.0-3.0-1.46","true"
"644","ImagesTennis/TL92.5.png","190","test",".","image-keyboard-response","98","90071","0.0-3.0-1.47","true"
"825","ImagesSoccer/VL92.5.png","190","test",".","image-keyboard-response","100","91404","0.0-3.0-1.48","true"
"594","ImagesDirect/VL105.png","188","test",",","image-keyboard-response","102","92504","0.0-3.0-1.49","true"
"656","ImagesTennis/TL105.png","188","test",",","image-keyboard-response","104","93667","0.0-3.0-1.50","true"
"728","ImagesSoccer/VL102.5.png","188","test",",","image-keyboard-response","106","94902","0.0-3.0-1.51","true"
"617","ImagesTennis/TL107.5.png","188","test",",","image-keyboard-response","108","96026","0.0-3.0-1.52","true"
"690","ImagesSoccer/VL90.png","190","test",".","image-keyboard-response","110","97222","0.0-3.0-1.53","true"
"685","ImagesDirect/VR97.5.png","190","test",",","image-keyboard-response","112","98414","0.0-3.0-1.54","false"
"761","ImagesSoccer/VR92.5.png","190","test",",","image-keyboard-response","114","99681","0.0-3.0-1.55","false"
"524","ImagesTennis/TR107.5.png","190","test",".","image-keyboard-response","116","100711","0.0-3.0-1.56","true"
"560","ImagesSoccer/VL95.png","188","test",".","image-keyboard-response","118","101777","0.0-3.0-1.57","false"
"431","ImagesSoccer/VR110.png","190","test",".","image-keyboard-response","120","102714","0.0-3.0-1.58","true"
"707","ImagesDirect/VL90.png","190","test",".","image-keyboard-response","122","103927","0.0-3.0-1.59","true"
"545","ImagesTennis/TL90.png","190","test",".","image-keyboard-response","124","104978","0.0-3.0-1.60","true"
"619","ImagesSoccer/VL90.png","190","test",".","image-keyboard-response","126","106103","0.0-3.0-1.61","true"
"494","ImagesDirect/VL110.png","188","test",",","image-keyboard-response","128","107103","0.0-3.0-1.62","true"
"734","ImagesDirect/VL92.5.png","190","test",".","image-keyboard-response","130","108343","0.0-3.0-1.63","true"
"475","ImagesSoccer/VR100.png","190","test",".","image-keyboard-response","132","109325","0.0-3.0-1.64","true"
"529","ImagesSoccer/VL100.png","188","test",".","image-keyboard-response","134","110361","0.0-3.0-1.65","false"
"545","ImagesTennis/TR100.png","190","test",".","image-keyboard-response","136","111412","0.0-3.0-1.66","true"
"643","ImagesTennis/TR95.png","188","test",",","image-keyboard-response","138","112562","0.0-3.0-1.67","true"
"465","ImagesDirect/VR102.5.png","190","test",".","image-keyboard-response","140","113533","0.0-3.0-1.68","true"
"452","ImagesSoccer/VR107.5.png","190","test",".","image-keyboard-response","142","114493","0.0-3.0-1.69","true"
"753","ImagesDirect/VL97.5.png","188","test",".","image-keyboard-response","144","115752","0.0-3.0-1.70","false"
"766","ImagesTennis/TL105.png","188","test",",","image-keyboard-response","146","117026","0.0-3.0-1.71","true"
"649","ImagesTennis/TL100.png","188","test",".","image-keyboard-response","148","118181","0.0-3.0-1.72","false"
"428","ImagesTennis/TL92.5.png","188","test",".","image-keyboard-response","150","119116","0.0-3.0-1.73","false"
"656","ImagesTennis/TR102.5.png","190","test",".","image-keyboard-response","152","120279","0.0-3.0-1.74","true"
"451","ImagesSoccer/VL107.5.png","188","test",",","image-keyboard-response","154","121236","0.0-3.0-1.75","true"
"491","ImagesTennis/TL95.png","188","test",".","image-keyboard-response","156","122233","0.0-3.0-1.76","false"
"406","ImagesSoccer/VR97.5.png","190","test",",","image-keyboard-response","158","123146","0.0-3.0-1.77","false"
"442","ImagesSoccer/VL102.5.png","188","test",",","image-keyboard-response","160","124095","0.0-3.0-1.78","true"
"382","ImagesSoccer/VR90.png","190","test",",","image-keyboard-response","162","124983","0.0-3.0-1.79","false"
"340","ImagesSoccer/VL110.png","188","test",",","image-keyboard-response","164","125830","0.0-3.0-1.80","true"
"590","ImagesTennis/TL97.5.png","190","test",".","image-keyboard-response","166","126926","0.0-3.0-1.81","true"
"402","ImagesDirect/VL105.png","188","test",",","image-keyboard-response","168","127834","0.0-3.0-1.82","true"
"386","ImagesDirect/VL102.5.png","188","test",",","image-keyboard-response","170","128729","0.0-3.0-1.83","true"
"401","ImagesSoccer/VR102.5.png","190","test",".","image-keyboard-response","172","129636","0.0-3.0-1.84","true"
"385","ImagesDirect/VR95.png","190","test",",","image-keyboard-response","174","130527","0.0-3.0-1.85","false"
"491","ImagesTennis/TR105.png","190","test",".","image-keyboard-response","176","131524","0.0-3.0-1.86","true"
"430","ImagesSoccer/VL92.5.png","188","test",".","image-keyboard-response","178","132460","0.0-3.0-1.87","false"
"556","ImagesSoccer/VL97.5.png","188","test",".","image-keyboard-response","180","133522","0.0-3.0-1.88","false"
"453","ImagesDirect/VL100.png","188","test",".","image-keyboard-response","182","134481","0.0-3.0-1.89","false"
"402","ImagesTennis/TL102.5.png","188","test",",","image-keyboard-response","184","135388","0.0-3.0-1.90","true"
"413","ImagesTennis/TR92.5.png","190","test",",","image-keyboard-response","186","136307","0.0-3.0-1.91","false"
"308","ImagesDirect/VL95.png","188","test",".","image-keyboard-response","188","137121","0.0-3.0-1.92","false"
"295","ImagesTennis/TR110.png","188","test",".","image-keyboard-response","190","137922","0.0-3.0-1.93","false"
"563","ImagesDirect/VR90.png","188","test",",","image-keyboard-response","192","138991","0.0-3.0-1.94","true"
"471","ImagesDirect/VR110.png","190","test",".","image-keyboard-response","194","139969","0.0-3.0-1.95","true"
"609","ImagesDirect/VR92.5.png","188","test",",","image-keyboard-response","196","141084","0.0-3.0-1.96","true"
"376","ImagesSoccer/VR105.png","190","test",".","image-keyboard-response","198","141967","0.0-3.0-1.97","true"
"354","ImagesDirect/VR107.5.png","190","test",".","image-keyboard-response","200","142828","0.0-3.0-1.98","true"
"196","ImagesSoccer/VL105.png","190","test",",","image-keyboard-response","202","143530","0.0-3.0-1.99","false"
"119","ImagesDirect/VL107.5.png","190","test",",","image-keyboard-response","204","144156","0.0-3.0-1.100","false"
"124","ImagesTennis/TL107.5.png","190","test",",","image-keyboard-response","206","144786","0.0-3.0-1.101","false"
"247","ImagesTennis/TR97.5.png","190","test",",","image-keyboard-response","208","145540","0.0-3.0-1.102","false"
"0","ImagesTennis/TR90.png","190","test",",","image-keyboard-response","210","146046","0.0-3.0-1.103","false"
"326","ImagesTennis/TL110.png","188","test",",","image-keyboard-response","212","146878","0.0-3.0-1.104","true"
"307","ImagesDirect/VR105.png","188","test",".","image-keyboard-response","214","147692","0.0-3.0-1.105","false"
"315","ImagesSoccer/VR95.png","190","test",",","image-keyboard-response","216","148513","0.0-3.0-1.106","false"
"237","ImagesDirect/VR100.png","188","test",".","image-keyboard-response","218","149256","0.0-3.0-1.107","false"
"217","ImagesSoccer/VR92.5.png","190","test",",","image-keyboard-response","220","149980","0.0-3.0-1.108","false"
"145","ImagesSoccer/VL110.png","188","test",",","image-keyboard-response","222","150631","0.0-3.0-1.109","true"
"208","ImagesDirect/VL105.png","190","test",",","image-keyboard-response","224","151345","0.0-3.0-1.110","false"
"99","ImagesTennis/TR102.5.png","188","test",".","image-keyboard-response","226","151950","0.0-3.0-1.111","false"
"122","ImagesSoccer/VR97.5.png","190","test",",","image-keyboard-response","228","152578","0.0-3.0-1.112","false"
"78","ImagesDirect/VR110.png","188","test",".","image-keyboard-response","230","153162","0.0-3.0-1.113","false"
"25","ImagesSoccer/VL100.png","190","test",".","image-keyboard-response","232","153694","0.0-3.0-1.114","true"
"521","ImagesSoccer/VL102.5.png","188","test",",","image-keyboard-response","234","154721","0.0-3.0-1.115","true"
"186","ImagesDirect/VR95.png","190","test",",","image-keyboard-response","236","155413","0.0-3.0-1.116","false"
"231","ImagesSoccer/VL92.5.png","188","test",".","image-keyboard-response","238","156150","0.0-3.0-1.117","false"
"151","ImagesDirect/VL107.5.png","190","test",",","image-keyboard-response","240","156807","0.0-3.0-1.118","false"
"433","ImagesDirect/VL100.png","188","test",".","image-keyboard-response","242","157746","0.0-3.0-1.119","false"
"361","ImagesSoccer/VR100.png","190","test",".","image-keyboard-response","244","158613","0.0-3.0-1.120","true"
"416","ImagesSoccer/VL107.5.png","188","test",",","image-keyboard-response","246","159535","0.0-3.0-1.121","true"
"292","ImagesDirect/VR90.png","190","test",",","image-keyboard-response","248","160333","0.0-3.0-1.122","false"
"265","ImagesDirect/VL102.5.png","188","test",",","image-keyboard-response","250","161104","0.0-3.0-1.123","true"
"395","ImagesSoccer/VL105.png","188","test",",","image-keyboard-response","252","162005","0.0-3.0-1.124","true"
"427","ImagesTennis/TR100.png","190","test",".","image-keyboard-response","254","162939","0.0-3.0-1.125","true"
"368","ImagesTennis/TL107.5.png","188","test",",","image-keyboard-response","256","163813","0.0-3.0-1.126","true"
"368","ImagesDirect/VR105.png","190","test",".","image-keyboard-response","258","164688","0.0-3.0-1.127","true"
"273","ImagesTennis/TL105.png","188","test",",","image-keyboard-response","260","165467","0.0-3.0-1.128","true"
"364","ImagesDirect/VR97.5.png","190","test",",","image-keyboard-response","262","166337","0.0-3.0-1.129","false"
"394","ImagesTennis/TR105.png","188","test",".","image-keyboard-response","264","167238","0.0-3.0-1.130","false"
"225","ImagesDirect/VR100.png","190","test",".","image-keyboard-response","266","167970","0.0-3.0-1.131","true"
"418","ImagesDirect/VL110.png","188","test",",","image-keyboard-response","268","168894","0.0-3.0-1.132","true"
"603","ImagesDirect/VL90.png","190","test",".","image-keyboard-response","270","170004","0.0-3.0-1.133","true"
"460","ImagesTennis/TR92.5.png","188","test",",","image-keyboard-response","272","170970","0.0-3.0-1.134","true"
"285","ImagesTennis/TR110.png","190","test",".","image-keyboard-response","274","171761","0.0-3.0-1.135","true"
"361","ImagesTennis/TR95.png","188","test",",","image-keyboard-response","276","172629","0.0-3.0-1.136","true"
"233","ImagesTennis/TL102.5.png","190","test",",","image-keyboard-response","278","173368","0.0-3.0-1.137","false"
"225","ImagesSoccer/VL95.png","188","test",".","image-keyboard-response","280","174099","0.0-3.0-1.138","false"
"228","ImagesDirect/VR102.5.png","190","test",".","image-keyboard-response","282","174834","0.0-3.0-1.139","true"
"183","ImagesTennis/TR107.5.png","188","test",".","image-keyboard-response","284","175524","0.0-3.0-1.140","false"
"162","ImagesDirect/VL95.png","190","test",".","image-keyboard-response","286","176193","0.0-3.0-1.141","true"
"140","ImagesDirect/VR107.5.png","188","test",".","image-keyboard-response","288","176839","0.0-3.0-1.142","false"
"160","ImagesTennis/TL90.png","190","test",".","image-keyboard-response","290","177506","0.0-3.0-1.143","true"
"405","ImagesTennis/TL100.png","188","test",".","image-keyboard-response","292","178418","0.0-3.0-1.144","false"
"513","ImagesTennis/TR97.5.png","188","test",",","image-keyboard-response","294","179436","0.0-3.0-1.145","true"
"430","ImagesSoccer/VR105.png","190","test",".","image-keyboard-response","296","180372","0.0-3.0-1.146","true"
"706","ImagesSoccer/VR90.png","190","test",",","image-keyboard-response","298","181584","0.0-3.0-1.147","false"
"606","ImagesTennis/TL95.png","190","test",".","image-keyboard-response","300","182697","0.0-3.0-1.148","true"
"583","ImagesDirect/VR92.5.png","188","test",",","image-keyboard-response","302","183786","0.0-3.0-1.149","true"
"579","ImagesSoccer/VL90.png","188","test",".","image-keyboard-response","304","184872","0.0-3.0-1.150","false"
"494","ImagesSoccer/VR107.5.png","190","test",".","image-keyboard-response","306","185872","0.0-3.0-1.151","true"
"449","ImagesTennis/TR90.png","188","test",",","image-keyboard-response","308","186827","0.0-3.0-1.152","true"
"397","ImagesSoccer/VR102.5.png","190","test",".","image-keyboard-response","310","187730","0.0-3.0-1.153","true"
"523","ImagesSoccer/VR110.png","190","test",".","image-keyboard-response","312","188759","0.0-3.0-1.154","true"
"398","ImagesDirect/VL97.5.png","188","test",".","image-keyboard-response","314","189663","0.0-3.0-1.155","false"
"395","ImagesTennis/TL110.png","188","test",",","image-keyboard-response","316","190564","0.0-3.0-1.156","true"
"837","ImagesDirect/VL92.5.png","188","test",".","image-keyboard-response","318","191907","0.0-3.0-1.157","false"
"419","ImagesTennis/TL97.5.png","188","test",".","image-keyboard-response","320","192833","0.0-3.0-1.158","false"
"401","ImagesSoccer/VL97.5.png","188","test",".","image-keyboard-response","322","193740","0.0-3.0-1.159","false"
"463","ImagesSoccer/VR95.png","190","test",",","image-keyboard-response","324","194710","0.0-3.0-1.160","false"
"379","ImagesTennis/TL92.5.png","188","test",".","image-keyboard-response","326","195596","0.0-3.0-1.161","false"
"381","ImagesSoccer/VL107.5.png","188","test",",","image-keyboard-response","328","196484","0.0-3.0-1.162","true"
"425","ImagesTennis/TL107.5.png","188","test",",","image-keyboard-response","330","197415","0.0-3.0-1.163","true"
"349","ImagesSoccer/VL110.png","188","test",",","image-keyboard-response","332","198272","0.0-3.0-1.164","true"
"287","ImagesSoccer/VL102.5.png","188","test",",","image-keyboard-response","334","199065","0.0-3.0-1.165","true"
"268","ImagesTennis/TL90.png","188","test",".","image-keyboard-response","336","199840","0.0-3.0-1.166","false"
"375","ImagesSoccer/VL97.5.png","188","test",".","image-keyboard-response","338","200722","0.0-3.0-1.167","false"
"407","ImagesSoccer/VR102.5.png","190","test",".","image-keyboard-response","340","201635","0.0-3.0-1.168","true"
"544","ImagesDirect/VR90.png","190","test",",","image-keyboard-response","342","202685","0.0-3.0-1.169","false"
"509","ImagesTennis/TR107.5.png","190","test",".","image-keyboard-response","344","203701","0.0-3.0-1.170","true"
"463","ImagesTennis/TR110.png","190","test",".","image-keyboard-response","346","204671","0.0-3.0-1.171","true"
"412","ImagesSoccer/VL90.png","188","test",".","image-keyboard-response","348","205589","0.0-3.0-1.172","false"
"479","ImagesDirect/VR102.5.png","190","test",".","image-keyboard-response","350","206575","0.0-3.0-1.173","true"
"501","ImagesDirect/VL105.png","188","test",",","image-keyboard-response","352","207582","0.0-3.0-1.174","true"
"390","ImagesTennis/TR92.5.png","188","test",",","image-keyboard-response","354","208479","0.0-3.0-1.175","true"
"312","ImagesTennis/TR90.png","188","test",",","image-keyboard-response","356","209297","0.0-3.0-1.176","true"
"342","ImagesDirect/VL92.5.png","188","test",".","image-keyboard-response","358","210146","0.0-3.0-1.177","false"
"412","ImagesTennis/TR105.png","190","test",".","image-keyboard-response","360","211064","0.0-3.0-1.178","true"
"360","ImagesSoccer/VR105.png","188","test",".","image-keyboard-response","362","211931","0.0-3.0-1.179","false"
"384","ImagesSoccer/VR100.png","190","test",".","image-keyboard-response","364","212821","0.0-3.0-1.180","true"
"376","ImagesSoccer/VR95.png","190","test",",","image-keyboard-response","366","213703","0.0-3.0-1.181","false"
"399","ImagesDirect/VR107.5.png","190","test",".","image-keyboard-response","368","214607","0.0-3.0-1.182","true"
"461","ImagesDirect/VL100.png","188","test",".","image-keyboard-response","370","215574","0.0-3.0-1.183","false"
"430","ImagesDirect/VL90.png","188","test",".","image-keyboard-response","372","216510","0.0-3.0-1.184","false"
"294","ImagesSoccer/VR90.png","190","test",",","image-keyboard-response","374","217310","0.0-3.0-1.185","false"
"346","ImagesSoccer/VL100.png","188","test",".","image-keyboard-response","376","218162","0.0-3.0-1.186","false"
"265","ImagesDirect/VL95.png","190","test",".","image-keyboard-response","378","218933","0.0-3.0-1.187","true"
"210","ImagesSoccer/VL95.png","188","test",".","image-keyboard-response","380","219649","0.0-3.0-1.188","false"
"149","ImagesTennis/TL102.5.png","190","test",",","image-keyboard-response","382","220304","0.0-3.0-1.189","false"
"212","ImagesTennis/TL100.png","188","test",".","image-keyboard-response","384","221023","0.0-3.0-1.190","false"
"173","ImagesTennis/TL110.png","190","test",",","image-keyboard-response","386","221702","0.0-3.0-1.191","false"
"147","ImagesDirect/VL97.5.png","188","test",".","image-keyboard-response","388","222356","0.0-3.0-1.192","false"
"176","ImagesTennis/TR102.5.png","190","test",".","image-keyboard-response","390","223038","0.0-3.0-1.193","true"
"138","ImagesDirect/VL107.5.png","188","test",",","image-keyboard-response","392","223683","0.0-3.0-1.194","true"
"119","ImagesTennis/TL97.5.png","190","test",".","image-keyboard-response","394","224309","0.0-3.0-1.195","true"
"27","ImagesTennis/TR95.png","188","test",",","image-keyboard-response","396","224842","0.0-3.0-1.196","true"
"186","ImagesSoccer/VL105.png","190","test",",","image-keyboard-response","398","225534","0.0-3.0-1.197","false"
"138","ImagesDirect/VR105.png","188","test",".","image-keyboard-response","400","226178","0.0-3.0-1.198","false"
"67","ImagesTennis/TL92.5.png","190","test",".","image-keyboard-response","402","226752","0.0-3.0-1.199","true"
"132","ImagesTennis/TR97.5.png","188","test",",","image-keyboard-response","404","227391","0.0-3.0-1.200","true"
"110","ImagesSoccer/VR110.png","190","test",".","image-keyboard-response","406","228009","0.0-3.0-1.201","true"
"85","ImagesDirect/VL102.5.png","188","test",",","image-keyboard-response","408","228600","0.0-3.0-1.202","true"
"118","ImagesTennis/TR100.png","190","test",".","image-keyboard-response","410","229226","0.0-3.0-1.203","true"
"143","ImagesDirect/VR97.5.png","188","test",",","image-keyboard-response","412","229875","0.0-3.0-1.204","true"
"99","ImagesSoccer/VL92.5.png","190","test",".","image-keyboard-response","414","230481","0.0-3.0-1.205","true"
"137","ImagesTennis/TL105.png","188","test",",","image-keyboard-response","416","231125","0.0-3.0-1.206","true"
"112","ImagesSoccer/VR92.5.png","190","test",",","image-keyboard-response","418","231744","0.0-3.0-1.207","false"
"209","ImagesDirect/VR100.png","188","test",".","image-keyboard-response","420","232461","0.0-3.0-1.208","false"
"257","ImagesDirect/VR95.png","190","test",",","image-keyboard-response","422","233226","0.0-3.0-1.209","false"
"281","ImagesTennis/TL95.png","190","test",".","image-keyboard-response","424","234014","0.0-3.0-1.210","true"
"230","ImagesDirect/VL110.png","190","test",",","image-keyboard-response","426","234750","0.0-3.0-1.211","false"
"279","ImagesDirect/VR92.5.png","190","test",",","image-keyboard-response","428","235535","0.0-3.0-1.212","false"
"251","ImagesSoccer/VR107.5.png","190","test",".","image-keyboard-response","430","236293","0.0-3.0-1.213","true"
"265","ImagesSoccer/VR97.5.png","190","test",",","image-keyboard-response","432","237065","0.0-3.0-1.214","false"
"167","ImagesDirect/VR110.png","190","test",".","image-keyboard-response","434","237739","0.0-3.0-1.215","true"
"200","ImagesTennis/TR90.png","190","test",",","image-keyboard-response","436","238445","0.0-3.0-1.216","false"
"159","ImagesSoccer/VL100.png","188","test",".","image-keyboard-response","438","239111","0.0-3.0-1.217","false"
"127","ImagesTennis/TL95.png","190","test",".","image-keyboard-response","440","239744","0.0-3.0-1.218","true"
"81","ImagesSoccer/VL110.png","188","test",",","image-keyboard-response","442","240332","0.0-3.0-1.219","true"
"202","ImagesTennis/TL100.png","190","test",".","image-keyboard-response","444","241041","0.0-3.0-1.220","true"
"105","ImagesSoccer/VL102.5.png","188","test",",","image-keyboard-response","446","241653","0.0-3.0-1.221","true"
"203","ImagesDirect/VL102.5.png","190","test",",","image-keyboard-response","448","242362","0.0-3.0-1.222","false"
"109","ImagesSoccer/VR107.5.png","188","test",".","image-keyboard-response","450","242978","0.0-3.0-1.223","false"
"175","ImagesDirect/VL90.png","188","test",".","image-keyboard-response","452","243659","0.0-3.0-1.224","false"
"162","ImagesDirect/VL100.png","188","test",".","image-keyboard-response","454","244329","0.0-3.0-1.225","false"
"201","ImagesSoccer/VR110.png","188","test",".","image-keyboard-response","456","245036","0.0-3.0-1.226","false"
"214","ImagesDirect/VL110.png","188","test",",","image-keyboard-response","458","245758","0.0-3.0-1.227","true"
"515","ImagesTennis/TL90.png","188","test",".","image-keyboard-response","460","246779","0.0-3.0-1.228","false"
"178","ImagesTennis/TL107.5.png","188","test",",","image-keyboard-response","462","247464","0.0-3.0-1.229","true"
"144","ImagesSoccer/VR92.5.png","188","test",",","image-keyboard-response","464","248116","0.0-3.0-1.230","true"
"135","ImagesTennis/TL97.5.png","188","test",".","image-keyboard-response","466","248757","0.0-3.0-1.231","false"
"134","ImagesDirect/VL107.5.png","188","test",",","image-keyboard-response","468","249397","0.0-3.0-1.232","true"
"76","ImagesDirect/VR105.png","188","test",".","image-keyboard-response","470","249980","0.0-3.0-1.233","false"
"84","ImagesDirect/VL95.png","188","test",".","image-keyboard-response","472","250572","0.0-3.0-1.234","false"
"28","ImagesTennis/TR92.5.png","188","test",",","image-keyboard-response","474","251105","0.0-3.0-1.235","true"
"383","ImagesDirect/VR90.png","188","test",",","image-keyboard-response","476","251994","0.0-3.0-1.236","true"
"254","ImagesTennis/TR105.png","188","test",".","image-keyboard-response","478","252755","0.0-3.0-1.237","false"
"939","ImagesSoccer/VR102.5.png","190","test",".","image-keyboard-response","480","254200","0.0-3.0-1.238","true"
"395","ImagesTennis/TL105.png","188","test",",","image-keyboard-response","482","255101","0.0-3.0-1.239","true"
"225","ImagesDirect/VR95.png","190","test",",","image-keyboard-response","484","255832","0.0-3.0-1.240","false"
"322","ImagesSoccer/VL107.5.png","188","test",",","image-keyboard-response","486","256660","0.0-3.0-1.241","true"
"186","ImagesTennis/TR97.5.png","190","test",",","image-keyboard-response","488","257353","0.0-3.0-1.242","false"
"122","ImagesDirect/VR100.png","188","test",".","image-keyboard-response","490","257981","0.0-3.0-1.243","false"
"56","ImagesSoccer/VR95.png","190","test",",","image-keyboard-response","492","258543","0.0-3.0-1.244","false"
"295","ImagesSoccer/VL92.5.png","190","test",".","image-keyboard-response","494","259344","0.0-3.0-1.245","true"
"149","ImagesSoccer/VL90.png","188","test",".","image-keyboard-response","496","259999","0.0-3.0-1.246","false"
"732","ImagesDirect/VR107.5.png","190","test",".","image-keyboard-response","498","261239","0.0-3.0-1.247","true"
"384","ImagesTennis/TR107.5.png","190","test",".","image-keyboard-response","500","262130","0.0-3.0-1.248","true"
"876","ImagesSoccer/VL95.png","190","test",".","image-keyboard-response","502","263511","0.0-3.0-1.249","true"
"457","ImagesDirect/VL97.5.png","188","test",".","image-keyboard-response","504","264474","0.0-3.0-1.250","false"
"289","ImagesTennis/TR95.png","190","test",",","image-keyboard-response","506","265269","0.0-3.0-1.251","false"
"274","ImagesSoccer/VL97.5.png","188","test",".","image-keyboard-response","508","266049","0.0-3.0-1.252","false"
"157","ImagesDirect/VR102.5.png","190","test",".","image-keyboard-response","510","266712","0.0-3.0-1.253","true"
"229","ImagesTennis/TL102.5.png","188","test",",","image-keyboard-response","512","267447","0.0-3.0-1.254","true"
"173","ImagesDirect/VR97.5.png","190","test",",","image-keyboard-response","514","268126","0.0-3.0-1.255","false"
"209","ImagesDirect/VL92.5.png","188","test",".","image-keyboard-response","516","268842","0.0-3.0-1.256","false"
"96","ImagesTennis/TL110.png","190","test",",","image-keyboard-response","518","269446","0.0-3.0-1.257","false"
"263","ImagesSoccer/VR90.png","188","test",",","image-keyboard-response","520","270216","0.0-3.0-1.258","true"
"135","ImagesDirect/VR92.5.png","190","test",",","image-keyboard-response","522","270857","0.0-3.0-1.259","false"
"77","ImagesTennis/TR110.png","188","test",".","image-keyboard-response","524","271440","0.0-3.0-1.260","false"
"238","ImagesSoccer/VR100.png","188","test",".","image-keyboard-response","526","272186","0.0-3.0-1.261","false"
"111","ImagesTennis/TL92.5.png","188","test",".","image-keyboard-response","528","272804","0.0-3.0-1.262","false"
"99","ImagesSoccer/VL105.png","188","test",",","image-keyboard-response","530","273409","0.0-3.0-1.263","true"
"88","ImagesDirect/VL105.png","188","test",",","image-keyboard-response","532","274003","0.0-3.0-1.264","true"
"277","ImagesSoccer/VR105.png","188","test",".","image-keyboard-response","534","274786","0.0-3.0-1.265","false"
"199","ImagesDirect/VR110.png","188","test",".","image-keyboard-response","536","275491","0.0-3.0-1.266","false"
"184","ImagesTennis/TR100.png","188","test",".","image-keyboard-response","538","276181","0.0-3.0-1.267","false"
"160","ImagesSoccer/VR97.5.png","188","test",",","image-keyboard-response","540","276847","0.0-3.0-1.268","true"
"96","ImagesTennis/TR102.5.png","190","test",".","image-keyboard-response","542","277449","0.0-3.0-1.269","true"
"70","ImagesCoins/10R100.png","190","test",".","image-keyboard-response","544","278026","0.0-4.0-1.0","true"
"422","ImagesCoins/10R107.5.png","190","test",".","image-keyboard-response","546","278954","0.0-4.0-1.1","true"
"1558","ImagesCoins/10L97.5.png","188","test",".","image-keyboard-response","548","281018","0.0-4.0-1.2","false"
"609","ImagesCoins/10L107.5.png","188","test",",","image-keyboard-response","550","282135","0.0-4.0-1.3","true"
"532","ImagesCoins/10L100.png","188","test",".","image-keyboard-response","552","283173","0.0-4.0-1.4","false"
"1757","ImagesCoins/10R92.5.png","188","test",",","image-keyboard-response","554","285437","0.0-4.0-1.5","true"
"784","ImagesCoins/10L110.png","188","test",",","image-keyboard-response","556","286728","0.0-4.0-1.6","true"
"774","ImagesCoins/10L92.5.png","190","test",".","image-keyboard-response","558","288009","0.0-4.0-1.7","true"
"661","ImagesCoins/10R105.png","190","test",".","image-keyboard-response","560","289177","0.0-4.0-1.8","true"
"723","ImagesCoins/10R95.png","188","test",",","image-keyboard-response","562","290407","0.0-4.0-1.9","true"
"684","ImagesCoins/10R97.5.png","188","test",",","image-keyboard-response","564","291598","0.0-4.0-1.10","true"
"738","ImagesCoins/10R110.png","190","test",".","image-keyboard-response","566","292843","0.0-4.0-1.11","true"
"614","ImagesCoins/10R90.png","188","test",",","image-keyboard-response","568","293964","0.0-4.0-1.12","true"
"605","ImagesCoins/10R102.5.png","188","test",".","image-keyboard-response","570","295076","0.0-4.0-1.13","false"
"430","ImagesCoins/10L90.png","188","test",".","image-keyboard-response","572","296012","0.0-4.0-1.14","false"
"619","ImagesCoins/10L105.png","188","test",",","image-keyboard-response","574","297138","0.0-4.0-1.15","true"
"514","ImagesCoins/10L102.5.png","188","test",",","image-keyboard-response","576","298159","0.0-4.0-1.16","true"
"385","ImagesCoins/10L95.png","188","test",".","image-keyboard-response","578","299051","0.0-4.0-1.17","false"
"245","ImagesCoins/10L95.png","188","test",".","image-keyboard-response","580","299802","0.0-4.0-1.18","false"
"251","ImagesCoins/10R92.5.png","188","test",",","image-keyboard-response","582","300559","0.0-4.0-1.19","true"
"430","ImagesCoins/10R97.5.png","188","test",",","image-keyboard-response","584","301495","0.0-4.0-1.20","true"
"420","ImagesCoins/10R100.png","188","test",".","image-keyboard-response","586","302421","0.0-4.0-1.21","false"
"438","ImagesCoins/10L92.5.png","188","test",".","image-keyboard-response","588","303365","0.0-4.0-1.22","false"
"349","ImagesCoins/10R95.png","188","test",",","image-keyboard-response","590","304220","0.0-4.0-1.23","true"
"476","ImagesCoins/10R107.5.png","188","test",".","image-keyboard-response","592","305202","0.0-4.0-1.24","false"
"283","ImagesCoins/10L102.5.png","188","test",",","image-keyboard-response","594","305991","0.0-4.0-1.25","true"
"290","ImagesCoins/10L105.png","188","test",",","image-keyboard-response","596","306787","0.0-4.0-1.26","true"
"294","ImagesCoins/10L110.png","188","test",",","image-keyboard-response","598","307588","0.0-4.0-1.27","true"
"230","ImagesCoins/10R110.png","188","test",".","image-keyboard-response","600","308324","0.0-4.0-1.28","false"
"281","ImagesCoins/10L100.png","190","test",".","image-keyboard-response","602","309111","0.0-4.0-1.29","true"
"225","ImagesCoins/10L107.5.png","190","test",",","image-keyboard-response","604","309842","0.0-4.0-1.30","false"
"188","ImagesCoins/10R90.png","188","test",",","image-keyboard-response","606","310536","0.0-4.0-1.31","true"
"487","ImagesCoins/10R105.png","188","test",".","image-keyboard-response","608","311529","0.0-4.0-1.32","false"
"393","ImagesCoins/10L97.5.png","188","test",".","image-keyboard-response","610","312428","0.0-4.0-1.33","false"
"478","ImagesCoins/10R102.5.png","190","test",".","image-keyboard-response","612","313412","0.0-4.0-1.34","true"
"434","ImagesCoins/10L90.png","188","test",".","image-keyboard-response","614","314353","0.0-4.0-1.35","false"
"650","ImagesCoins/10L105.png","188","test",",","image-keyboard-response","616","315509","0.0-4.0-1.36","true"
"407","ImagesCoins/10L107.5.png","188","test",",","image-keyboard-response","618","316422","0.0-4.0-1.37","true"
"380","ImagesCoins/10R95.png","190","test",",","image-keyboard-response","620","317308","0.0-4.0-1.38","false"
"124","ImagesCoins/10R102.5.png","188","test",".","image-keyboard-response","622","317939","0.0-4.0-1.39","false"
"72","ImagesCoins/10L102.5.png","190","test",",","image-keyboard-response","624","318518","0.0-4.0-1.40","false"
"0","ImagesCoins/10L97.5.png","188","test",".","image-keyboard-response","626","319023","0.0-4.0-1.41","false"
"143","ImagesCoins/10L95.png","190","test",".","image-keyboard-response","628","319673","0.0-4.0-1.42","true"
"114","ImagesCoins/10R105.png","188","test",".","image-keyboard-response","630","320293","0.0-4.0-1.43","false"
"340","ImagesCoins/10R90.png","188","test",",","image-keyboard-response","632","321141","0.0-4.0-1.44","true"
"215","ImagesCoins/10L100.png","188","test",".","image-keyboard-response","634","321862","0.0-4.0-1.45","false"
"96","ImagesCoins/10R92.5.png","188","test",",","image-keyboard-response","636","322466","0.0-4.0-1.46","true"
"188","ImagesCoins/10L90.png","188","test",".","image-keyboard-response","638","323161","0.0-4.0-1.47","false"
"181","ImagesCoins/10L92.5.png","188","test",".","image-keyboard-response","640","323849","0.0-4.0-1.48","false"
"170","ImagesCoins/10L110.png","188","test",",","image-keyboard-response","642","324525","0.0-4.0-1.49","true"
"204","ImagesCoins/10R107.5.png","188","test",".","image-keyboard-response","644","325237","0.0-4.0-1.50","false"
"180","ImagesCoins/10R110.png","188","test",".","image-keyboard-response","646","325923","0.0-4.0-1.51","false"
"196","ImagesCoins/10R100.png","188","test",".","image-keyboard-response","648","326626","0.0-4.0-1.52","false"
"196","ImagesCoins/10R97.5.png","188","test",",","image-keyboard-response","650","327329","0.0-4.0-1.53","true"
"154","ImagesCoins/10R110.png","188","test",".","image-keyboard-response","652","327990","0.0-4.0-1.54","false"
"199","ImagesCoins/10L105.png","188","test",",","image-keyboard-response","654","328696","0.0-4.0-1.55","true"
"98","ImagesCoins/10L110.png","190","test",",","image-keyboard-response","656","329301","0.0-4.0-1.56","false"
"110","ImagesCoins/10R95.png","190","test",",","image-keyboard-response","658","329918","0.0-4.0-1.57","false"
"129","ImagesCoins/10R92.5.png","190","test",",","image-keyboard-response","660","330553","0.0-4.0-1.58","false"
"112","ImagesCoins/10L97.5.png","190","test",".","image-keyboard-response","662","331171","0.0-4.0-1.59","true"
"141","ImagesCoins/10R97.5.png","190","test",",","image-keyboard-response","664","331818","0.0-4.0-1.60","false"
"120","ImagesCoins/10L90.png","190","test",".","image-keyboard-response","666","332445","0.0-4.0-1.61","true"
"130","ImagesCoins/10R90.png","190","test",",","image-keyboard-response","668","333081","0.0-4.0-1.62","false"
"143","ImagesCoins/10R100.png","190","test",".","image-keyboard-response","670","333730","0.0-4.0-1.63","true"
"104","ImagesCoins/10R102.5.png","190","test",".","image-keyboard-response","672","334340","0.0-4.0-1.64","true"
"139","ImagesCoins/10L100.png","190","test",".","image-keyboard-response","674","334985","0.0-4.0-1.65","true"
"94","ImagesCoins/10R107.5.png","190","test",".","image-keyboard-response","676","335585","0.0-4.0-1.66","true"
"75","ImagesCoins/10L95.png","190","test",".","image-keyboard-response","678","336166","0.0-4.0-1.67","true"
"159","ImagesCoins/10L107.5.png","190","test",",","image-keyboard-response","680","336831","0.0-4.0-1.68","false"
"56","ImagesCoins/10L92.5.png","190","test",".","image-keyboard-response","682","337393","0.0-4.0-1.69","true"
"148","ImagesCoins/10R105.png","188","test",".","image-keyboard-response","684","338047","0.0-4.0-1.70","false"
"209","ImagesCoins/10L102.5.png","190","test",",","image-keyboard-response","686","338762","0.0-4.0-1.71","false"
"177","ImagesCoins/10L92.5.png","188","test",".","image-keyboard-response","688","339445","0.0-4.0-1.72","false"
"423","ImagesCoins/10R107.5.png","190","test",".","image-keyboard-response","690","340374","0.0-4.0-1.73","true"
"240","ImagesCoins/10R110.png","188","test",".","image-keyboard-response","692","341120","0.0-4.0-1.74","false"
"217","ImagesCoins/10R102.5.png","190","test",".","image-keyboard-response","694","341844","0.0-4.0-1.75","true"
"239","ImagesCoins/10L97.5.png","188","test",".","image-keyboard-response","696","342589","0.0-4.0-1.76","false"
"498","ImagesCoins/10R95.png","190","test",",","image-keyboard-response","698","343593","0.0-4.0-1.77","false"
"262","ImagesCoins/10R97.5.png","188","test",",","image-keyboard-response","700","344362","0.0-4.0-1.78","true"
"179","ImagesCoins/10R100.png","188","test",".","image-keyboard-response","702","345047","0.0-4.0-1.79","false"
"274","ImagesCoins/10L100.png","188","test",".","image-keyboard-response","704","345829","0.0-4.0-1.80","false"
"239","ImagesCoins/10L105.png","188","test",",","image-keyboard-response","706","346575","0.0-4.0-1.81","true"
"168","ImagesCoins/10L110.png","188","test",",","image-keyboard-response","708","347253","0.0-4.0-1.82","true"
"303","ImagesCoins/10L95.png","188","test",".","image-keyboard-response","710","348063","0.0-4.0-1.83","false"
"434","ImagesCoins/10L90.png","188","test",".","image-keyboard-response","712","349003","0.0-4.0-1.84","false"
"518","ImagesCoins/10R92.5.png","188","test",",","image-keyboard-response","714","350028","0.0-4.0-1.85","true"
"422","ImagesCoins/10L102.5.png","188","test",",","image-keyboard-response","716","350957","0.0-4.0-1.86","true"
"318","ImagesCoins/10L107.5.png","188","test",",","image-keyboard-response","718","351781","0.0-4.0-1.87","true"
"495","ImagesCoins/10R105.png","190","test",".","image-keyboard-response","720","352783","0.0-4.0-1.88","true"
"777","ImagesCoins/10R90.png","188","test",",","image-keyboard-response","722","354067","0.0-4.0-1.89","true"
