"rt","stimulus","key_press","test_part","correct_response","trial_type","trial_index","time_elapsed","internal_node_id","correct"
"3269","ImagesSoccer/VR97.5.png","190","test",",","image-keyboard-response","4","23909","0.0-3.0-1.0","false"
"1113","ImagesTennis/TR110.png","190","test",".","image-keyboard-response","6","25524","0.0-3.0-1.1","true"
"1177","ImagesDirect/VL90.png","190","test",".","image-keyboard-response","8","27203","0.0-3.0-1.2","true"
"1121","ImagesTennis/TR107.5.png","190","test",".","image-keyboard-response","10","28826","0.0-3.0-1.3","true"
"978","ImagesSoccer/VR95.png","188","test",",","image-keyboard-response","12","30306","0.0-3.0-1.4","true"
"982","ImagesTennis/TR97.5.png","188","test",",","image-keyboard-response","14","31791","0.0-3.0-1.5","true"
"1962","ImagesSoccer/VR90.png","188","test",",","image-keyboard-response","16","34254","0.0-3.0-1.6","true"
"847","ImagesDirect/VL107.5.png","188","test",",","image-keyboard-response","18","35603","0.0-3.0-1.7","true"
"1345","ImagesDirect/VR90.png","188","test",",","image-keyboard-response","20","37450","0.0-3.0-1.8","true"
"922","ImagesSoccer/VL107.5.png","188","test",",","image-keyboard-response","22","38873","0.0-3.0-1.9","true"
"749","ImagesSoccer/VL90.png","190","test",".","image-keyboard-response","24","40124","0.0-3.0-1.10","true"
"1132","ImagesTennis/TR100.png","188","test",".","image-keyboard-response","26","41758","0.0-3.0-1.11","false"
"1063","ImagesDirect/VL92.5.png","190","test",".","image-keyboard-response","28","43324","0.0-3.0-1.12","true"
"967","ImagesTennis/TL107.5.png","188","test",",","image-keyboard-response","30","44794","0.0-3.0-1.13","true"
"1037","ImagesTennis/TR102.5.png","190","test",".","image-keyboard-response","32","46334","0.0-3.0-1.14","true"
"952","ImagesDirect/VR97.5.png","190","test",",","image-keyboard-response","34","47787","0.0-3.0-1.15","false"
"873","ImagesDirect/VL100.png","188","test",".","image-keyboard-response","36","49162","0.0-3.0-1.16","false"
"730","ImagesTennis/TL90.png","190","test",".","image-keyboard-response","38","50393","0.0-3.0-1.17","true"
"612","ImagesDirect/VL105.png","188","test",",","image-keyboard-response","40","51509","0.0-3.0-1.18","true"
"655","ImagesDirect/VL110.png","188","test",",","image-keyboard-response","42","52666","0.0-3.0-1.19","true"
"689","ImagesSoccer/VR105.png","190","test",".","image-keyboard-response","44","53858","0.0-3.0-1.20","true"
"653","ImagesDirect/VR107.5.png","190","test",".","image-keyboard-response","46","55012","0.0-3.0-1.21","true"
"640","ImagesSoccer/VR102.5.png","190","test",".","image-keyboard-response","48","56154","0.0-3.0-1.22","true"
"1020","ImagesSoccer/VR100.png","190","test",".","image-keyboard-response","50","57676","0.0-3.0-1.23","true"
"990","ImagesDirect/VR95.png","190","test",",","image-keyboard-response","52","59167","0.0-3.0-1.24","false"
"740","ImagesDirect/VR110.png","190","test",".","image-keyboard-response","54","60408","0.0-3.0-1.25","true"
"851","ImagesTennis/TL100.png","190","test",".","image-keyboard-response","56","61761","0.0-3.0-1.26","true"
"735","ImagesTennis/TL92.5.png","190","test",".","image-keyboard-response","58","62998","0.0-3.0-1.27","true"
"621","ImagesDirect/VL102.5.png","188","test",",","image-keyboard-response","60","64123","0.0-3.0-1.28","true"
"709","ImagesTennis/TL105.png","188","test",",","image-keyboard-response","62","65334","0.0-3.0-1.29","true"
"638","ImagesSoccer/VL92.5.png","190","test",".","image-keyboard-response","64","66474","0.0-3.0-1.30","true"
"668","ImagesSoccer/VR92.5.png","190","test",",","image-keyboard-response","66","67644","0.0-3.0-1.31","false"
"694","ImagesTennis/TR95.png","188","test",",","image-keyboard-response","68","68839","0.0-3.0-1.32","true"
"876","ImagesDirect/VR92.5.png","188","test",",","image-keyboard-response","70","70219","0.0-3.0-1.33","true"
"727","ImagesDirect/VL97.5.png","190","test",".","image-keyboard-response","72","71448","0.0-3.0-1.34","true"
"766","ImagesTennis/TR90.png","188","test",",","image-keyboard-response","74","72716","0.0-3.0-1.35","true"
"727","ImagesTennis/TL95.png","190","test",".","image-keyboard-response","76","73945","0.0-3.0-1.36","true"
"775","ImagesTennis/TL102.5.png","190","test",",","image-keyboard-response","78","75222","0.0-3.0-1.37","false"
"700","ImagesSoccer/VL105.png","188","test",",","image-keyboard-response","80","76425","0.0-3.0-1.38","true"
"762","ImagesTennis/TR105.png","190","test",".","image-keyboard-response","82","77689","0.0-3.0-1.39","true"
"916","ImagesSoccer/VL97.5.png","188","test",".","image-keyboard-response","84","79107","0.0-3.0-1.40","false"
"742","ImagesDirect/VR100.png","190","test",".","image-keyboard-response","86","80353","0.0-3.0-1.41","true"
"772","ImagesDirect/VR102.5.png","190","test",".","image-keyboard-response","88","81627","0.0-3.0-1.42","true"
"719","ImagesDirect/VR105.png","190","test",".","image-keyboard-response","90","82847","0.0-3.0-1.43","true"
"706","ImagesSoccer/VR110.png","190","test",".","image-keyboard-response","92","84055","0.0-3.0-1.44","true"
"813","ImagesSoccer/VL95.png","190","test",".","image-keyboard-response","94","85370","0.0-3.0-1.45","true"
"893","ImagesDirect/VL95.png","190","test",".","image-keyboard-response","96","86765","0.0-3.0-1.46","true"
"698","ImagesSoccer/VL100.png","188","test",".","image-keyboard-response","98","87965","0.0-3.0-1.47","false"
"713","ImagesTennis/TL97.5.png","190","test",".","image-keyboard-response","100","89180","0.0-3.0-1.48","true"
"705","ImagesSoccer/VL102.5.png","188","test",",","image-keyboard-response","102","90387","0.0-3.0-1.49","true"
"668","ImagesTennis/TR92.5.png","188","test",",","image-keyboard-response","104","91557","0.0-3.0-1.50","true"
"710","ImagesSoccer/VL110.png","188","test",",","image-keyboard-response","106","92769","0.0-3.0-1.51","true"
"729","ImagesSoccer/VR107.5.png","190","test",".","image-keyboard-response","108","94000","0.0-3.0-1.52","true"
"721","ImagesTennis/TL110.png","188","test",",","image-keyboard-response","110","95223","0.0-3.0-1.53","true"
"718","ImagesDirect/VR97.5.png","190","test",",","image-keyboard-response","112","96443","0.0-3.0-1.54","false"
"671","ImagesTennis/TL97.5.png","190","test",".","image-keyboard-response","114","97616","0.0-3.0-1.55","true"
"903","ImagesDirect/VL92.5.png","188","test",".","image-keyboard-response","116","99021","0.0-3.0-1.56","false"
"658","ImagesDirect/VL97.5.png","188","test",".","image-keyboard-response","118","100180","0.0-3.0-1.57","false"
"713","ImagesTennis/TL100.png","190","test",".","image-keyboard-response","120","101395","0.0-3.0-1.58","true"
"922","ImagesTennis/TR97.5.png","188","test",",","image-keyboard-response","122","102819","0.0-3.0-1.59","true"
"751","ImagesSoccer/VR102.5.png","190","test",".","image-keyboard-response","124","104071","0.0-3.0-1.60","true"
"620","ImagesDirect/VR102.5.png","190","test",".","image-keyboard-response","126","105192","0.0-3.0-1.61","true"
"843","ImagesTennis/TL102.5.png","188","test",",","image-keyboard-response","128","106538","0.0-3.0-1.62","true"
"898","ImagesTennis/TR92.5.png","188","test",",","image-keyboard-response","130","107938","0.0-3.0-1.63","true"
"731","ImagesDirect/VL105.png","188","test",",","image-keyboard-response","132","109171","0.0-3.0-1.64","true"
"736","ImagesSoccer/VR100.png","190","test",".","image-keyboard-response","134","110410","0.0-3.0-1.65","true"
"763","ImagesTennis/TR105.png","190","test",".","image-keyboard-response","136","111675","0.0-3.0-1.66","true"
"689","ImagesTennis/TL110.png","188","test",",","image-keyboard-response","138","112865","0.0-3.0-1.67","true"
"734","ImagesSoccer/VL107.5.png","188","test",",","image-keyboard-response","140","114101","0.0-3.0-1.68","true"
"579","ImagesSoccer/VR105.png","190","test",".","image-keyboard-response","142","115183","0.0-3.0-1.69","true"
"796","ImagesSoccer/VR92.5.png","188","test",",","image-keyboard-response","144","116481","0.0-3.0-1.70","true"
"631","ImagesDirect/VR92.5.png","190","test",",","image-keyboard-response","146","117614","0.0-3.0-1.71","false"
"624","ImagesTennis/TR90.png","188","test",",","image-keyboard-response","148","118740","0.0-3.0-1.72","true"
"579","ImagesDirect/VR105.png","190","test",".","image-keyboard-response","150","119822","0.0-3.0-1.73","true"
"689","ImagesTennis/TL95.png","190","test",".","image-keyboard-response","152","121014","0.0-3.0-1.74","true"
"431","ImagesDirect/VL107.5.png","188","test",",","image-keyboard-response","154","121946","0.0-3.0-1.75","true"
"582","ImagesSoccer/VL102.5.png","188","test",",","image-keyboard-response","156","123029","0.0-3.0-1.76","true"
"511","ImagesTennis/TR110.png","190","test",".","image-keyboard-response","158","124042","0.0-3.0-1.77","true"
"915","ImagesSoccer/VL92.5.png","188","test",".","image-keyboard-response","160","125459","0.0-3.0-1.78","false"
"493","ImagesDirect/VR110.png","190","test",".","image-keyboard-response","162","126454","0.0-3.0-1.79","true"
"382","ImagesDirect/VL100.png","188","test",".","image-keyboard-response","164","127338","0.0-3.0-1.80","false"
"513","ImagesTennis/TR102.5.png","190","test",".","image-keyboard-response","166","128353","0.0-3.0-1.81","true"
"551","ImagesSoccer/VR107.5.png","190","test",".","image-keyboard-response","168","129407","0.0-3.0-1.82","true"
"559","ImagesDirect/VR107.5.png","190","test",".","image-keyboard-response","170","130468","0.0-3.0-1.83","true"
"444","ImagesTennis/TL105.png","188","test",",","image-keyboard-response","172","131413","0.0-3.0-1.84","true"
"463","ImagesDirect/VR100.png","190","test",".","image-keyboard-response","174","132378","0.0-3.0-1.85","true"
"410","ImagesSoccer/VL90.png","188","test",".","image-keyboard-response","176","133290","0.0-3.0-1.86","false"
"573","ImagesTennis/TR100.png","188","test",".","image-keyboard-response","178","134366","0.0-3.0-1.87","false"
"470","ImagesTennis/TL107.5.png","188","test",",","image-keyboard-response","180","135338","0.0-3.0-1.88","true"
"440","ImagesDirect/VR95.png","190","test",",","image-keyboard-response","182","136280","0.0-3.0-1.89","false"
"490","ImagesSoccer/VL97.5.png","188","test",".","image-keyboard-response","184","137272","0.0-3.0-1.90","false"
"2251","ImagesSoccer/VR97.5.png","190","test",",","image-keyboard-response","186","140024","0.0-3.0-1.91","false"
"501","ImagesDirect/VR90.png","188","test",",","image-keyboard-response","188","141027","0.0-3.0-1.92","true"
"853","ImagesDirect/VL90.png","190","test",".","image-keyboard-response","190","142381","0.0-3.0-1.93","true"
"1334","ImagesDirect/VL95.png","190","test",".","image-keyboard-response","192","144216","0.0-3.0-1.94","true"
"743","ImagesSoccer/VL100.png","188","test",".","image-keyboard-response","194","145461","0.0-3.0-1.95","false"
"472","ImagesDirect/VL110.png","188","test",",","image-keyboard-response","196","146436","0.0-3.0-1.96","true"
"532","ImagesTennis/TR95.png","190","test",",","image-keyboard-response","198","147469","0.0-3.0-1.97","false"
"562","ImagesTennis/TL92.5.png","190","test",".","image-keyboard-response","200","148533","0.0-3.0-1.98","true"
"530","ImagesSoccer/VR110.png","190","test",".","image-keyboard-response","202","149565","0.0-3.0-1.99","true"
"578","ImagesSoccer/VR90.png","190","test",",","image-keyboard-response","204","150646","0.0-3.0-1.100","false"
"480","ImagesDirect/VL102.5.png","188","test",",","image-keyboard-response","206","151628","0.0-3.0-1.101","true"
"869","ImagesSoccer/VL95.png","190","test",".","image-keyboard-response","208","152999","0.0-3.0-1.102","true"
"420","ImagesSoccer/VL105.png","188","test",",","image-keyboard-response","210","153921","0.0-3.0-1.103","true"
"674","ImagesSoccer/VR95.png","190","test",",","image-keyboard-response","212","155097","0.0-3.0-1.104","false"
"580","ImagesTennis/TL90.png","190","test",".","image-keyboard-response","214","156179","0.0-3.0-1.105","true"
"469","ImagesSoccer/VL110.png","188","test",",","image-keyboard-response","216","157150","0.0-3.0-1.106","true"
"543","ImagesTennis/TR107.5.png","190","test",".","image-keyboard-response","218","158194","0.0-3.0-1.107","true"
"788","ImagesTennis/TL95.png","188","test",".","image-keyboard-response","220","159484","0.0-3.0-1.108","false"
"590","ImagesTennis/TL102.5.png","188","test",",","image-keyboard-response","222","160578","0.0-3.0-1.109","true"
"502","ImagesTennis/TR95.png","188","test",",","image-keyboard-response","224","161581","0.0-3.0-1.110","true"
"411","ImagesTennis/TL110.png","188","test",",","image-keyboard-response","226","162494","0.0-3.0-1.111","true"
"763","ImagesTennis/TL90.png","188","test",".","image-keyboard-response","228","163759","0.0-3.0-1.112","false"
"442","ImagesTennis/TR107.5.png","190","test",".","image-keyboard-response","230","164703","0.0-3.0-1.113","true"
"651","ImagesSoccer/VL90.png","190","test",".","image-keyboard-response","232","165856","0.0-3.0-1.114","true"
"481","ImagesSoccer/VR95.png","188","test",",","image-keyboard-response","234","166839","0.0-3.0-1.115","true"
"976","ImagesDirect/VR97.5.png","190","test",",","image-keyboard-response","236","168316","0.0-3.0-1.116","false"
"712","ImagesSoccer/VL92.5.png","190","test",".","image-keyboard-response","238","169531","0.0-3.0-1.117","true"
"570","ImagesDirect/VR92.5.png","190","test",",","image-keyboard-response","240","170604","0.0-3.0-1.118","false"
"541","ImagesDirect/VL90.png","188","test",".","image-keyboard-response","242","171647","0.0-3.0-1.119","false"
"561","ImagesSoccer/VR90.png","188","test",",","image-keyboard-response","244","172710","0.0-3.0-1.120","true"
"440","ImagesDirect/VL92.5.png","190","test",".","image-keyboard-response","246","173652","0.0-3.0-1.121","true"
"402","ImagesSoccer/VL110.png","188","test",",","image-keyboard-response","248","174556","0.0-3.0-1.122","true"
"470","ImagesDirect/VR107.5.png","190","test",".","image-keyboard-response","250","175528","0.0-3.0-1.123","true"
"1609","ImagesTennis/TR102.5.png","190","test",".","image-keyboard-response","252","177639","0.0-3.0-1.124","true"
"622","ImagesTennis/TR100.png","190","test",".","image-keyboard-response","254","178763","0.0-3.0-1.125","true"
"782","ImagesSoccer/VR102.5.png","190","test",".","image-keyboard-response","256","180047","0.0-3.0-1.126","true"
"573","ImagesDirect/VL107.5.png","188","test",",","image-keyboard-response","258","181121","0.0-3.0-1.127","true"
"591","ImagesSoccer/VR105.png","190","test",".","image-keyboard-response","260","182214","0.0-3.0-1.128","true"
"561","ImagesTennis/TR90.png","188","test",",","image-keyboard-response","262","183278","0.0-3.0-1.129","true"
"611","ImagesTennis/TR92.5.png","188","test",",","image-keyboard-response","264","184391","0.0-3.0-1.130","true"
"636","ImagesSoccer/VR97.5.png","190","test",",","image-keyboard-response","266","185528","0.0-3.0-1.131","false"
"613","ImagesTennis/TR105.png","190","test",".","image-keyboard-response","268","186642","0.0-3.0-1.132","true"
"570","ImagesSoccer/VL105.png","188","test",",","image-keyboard-response","270","187714","0.0-3.0-1.133","true"
"451","ImagesDirect/VR110.png","190","test",".","image-keyboard-response","272","188667","0.0-3.0-1.134","true"
"440","ImagesSoccer/VL102.5.png","188","test",",","image-keyboard-response","274","189609","0.0-3.0-1.135","true"
"657","ImagesSoccer/VR92.5.png","190","test",",","image-keyboard-response","276","190768","0.0-3.0-1.136","false"
"449","ImagesSoccer/VL95.png","188","test",".","image-keyboard-response","278","191720","0.0-3.0-1.137","false"
"604","ImagesDirect/VR95.png","188","test",",","image-keyboard-response","280","192826","0.0-3.0-1.138","true"
"541","ImagesDirect/VR100.png","190","test",".","image-keyboard-response","282","193869","0.0-3.0-1.139","true"
"882","ImagesSoccer/VL97.5.png","188","test",".","image-keyboard-response","284","195253","0.0-3.0-1.140","false"
"459","ImagesSoccer/VL100.png","188","test",".","image-keyboard-response","286","196215","0.0-3.0-1.141","false"
"501","ImagesDirect/VL110.png","188","test",",","image-keyboard-response","288","197218","0.0-3.0-1.142","true"
"823","ImagesTennis/TL100.png","188","test",".","image-keyboard-response","290","198542","0.0-3.0-1.143","false"
"521","ImagesTennis/TR110.png","190","test",".","image-keyboard-response","292","199564","0.0-3.0-1.144","true"
"792","ImagesSoccer/VR107.5.png","190","test",".","image-keyboard-response","294","200859","0.0-3.0-1.145","true"
"491","ImagesSoccer/VL107.5.png","188","test",",","image-keyboard-response","296","201851","0.0-3.0-1.146","true"
"471","ImagesDirect/VL102.5.png","188","test",",","image-keyboard-response","298","202824","0.0-3.0-1.147","true"
"847","ImagesDirect/VL100.png","188","test",".","image-keyboard-response","300","204172","0.0-3.0-1.148","false"
"572","ImagesTennis/TR97.5.png","190","test",",","image-keyboard-response","302","205247","0.0-3.0-1.149","false"
"766","ImagesTennis/TL97.5.png","190","test",".","image-keyboard-response","304","206514","0.0-3.0-1.150","true"
"766","ImagesDirect/VL95.png","190","test",".","image-keyboard-response","306","207783","0.0-3.0-1.151","true"
"572","ImagesSoccer/VR100.png","190","test",".","image-keyboard-response","308","208856","0.0-3.0-1.152","true"
"611","ImagesDirect/VL105.png","188","test",",","image-keyboard-response","310","209970","0.0-3.0-1.153","true"
"587","ImagesTennis/TL92.5.png","190","test",".","image-keyboard-response","312","211060","0.0-3.0-1.154","true"
"755","ImagesTennis/TL105.png","190","test",",","image-keyboard-response","314","212318","0.0-3.0-1.155","false"
"521","ImagesDirect/VR90.png","190","test",",","image-keyboard-response","316","213341","0.0-3.0-1.156","false"
"644","ImagesDirect/VR105.png","190","test",".","image-keyboard-response","318","214487","0.0-3.0-1.157","true"
"1027","ImagesDirect/VL97.5.png","188","test",".","image-keyboard-response","320","216015","0.0-3.0-1.158","false"
"570","ImagesTennis/TL107.5.png","188","test",",","image-keyboard-response","322","217087","0.0-3.0-1.159","true"
"712","ImagesDirect/VR102.5.png","190","test",".","image-keyboard-response","324","218303","0.0-3.0-1.160","true"
"639","ImagesSoccer/VR110.png","190","test",".","image-keyboard-response","326","219444","0.0-3.0-1.161","true"
"490","ImagesDirect/VL102.5.png","188","test",",","image-keyboard-response","328","220435","0.0-3.0-1.162","true"
"1034","ImagesSoccer/VL92.5.png","188","test",".","image-keyboard-response","330","221971","0.0-3.0-1.163","false"
"553","ImagesTennis/TR102.5.png","190","test",".","image-keyboard-response","332","223026","0.0-3.0-1.164","true"
"660","ImagesTennis/TR95.png","190","test",",","image-keyboard-response","334","224189","0.0-3.0-1.165","false"
"441","ImagesTennis/TL105.png","190","test",",","image-keyboard-response","336","225132","0.0-3.0-1.166","false"
"501","ImagesTennis/TR105.png","190","test",".","image-keyboard-response","338","226136","0.0-3.0-1.167","true"
"424","ImagesTennis/TL102.5.png","190","test",",","image-keyboard-response","340","227061","0.0-3.0-1.168","false"
"563","ImagesDirect/VR110.png","190","test",".","image-keyboard-response","342","228127","0.0-3.0-1.169","true"
"520","ImagesTennis/TR110.png","190","test",".","image-keyboard-response","344","229149","0.0-3.0-1.170","true"
"519","ImagesDirect/VR90.png","188","test",",","image-keyboard-response","346","230171","0.0-3.0-1.171","true"
"950","ImagesTennis/TR97.5.png","190","test",",","image-keyboard-response","348","231623","0.0-3.0-1.172","false"
"610","ImagesSoccer/VR90.png","190","test",",","image-keyboard-response","350","232735","0.0-3.0-1.173","false"
"430","ImagesSoccer/VL110.png","188","test",",","image-keyboard-response","352","233669","0.0-3.0-1.174","true"
"429","ImagesSoccer/VR97.5.png","190","test",",","image-keyboard-response","354","234599","0.0-3.0-1.175","false"
"591","ImagesDirect/VR92.5.png","190","test",",","image-keyboard-response","356","235692","0.0-3.0-1.176","false"
"652","ImagesTennis/TL92.5.png","190","test",".","image-keyboard-response","358","236846","0.0-3.0-1.177","true"
"520","ImagesDirect/VR107.5.png","190","test",".","image-keyboard-response","360","237868","0.0-3.0-1.178","true"
"606","ImagesTennis/TL97.5.png","190","test",".","image-keyboard-response","362","238976","0.0-3.0-1.179","true"
"679","ImagesDirect/VL97.5.png","188","test",".","image-keyboard-response","364","240156","0.0-3.0-1.180","false"
"593","ImagesDirect/VL107.5.png","188","test",",","image-keyboard-response","366","241251","0.0-3.0-1.181","true"
"618","ImagesTennis/TR90.png","188","test",",","image-keyboard-response","368","242372","0.0-3.0-1.182","true"
"623","ImagesSoccer/VR110.png","190","test",".","image-keyboard-response","370","243496","0.0-3.0-1.183","true"
"630","ImagesSoccer/VL97.5.png","188","test",".","image-keyboard-response","372","244628","0.0-3.0-1.184","false"
"512","ImagesDirect/VR100.png","190","test",".","image-keyboard-response","374","245641","0.0-3.0-1.185","true"
"540","ImagesSoccer/VR92.5.png","190","test",",","image-keyboard-response","376","246683","0.0-3.0-1.186","false"
"432","ImagesTennis/TL100.png","188","test",".","image-keyboard-response","378","247617","0.0-3.0-1.187","false"
"480","ImagesSoccer/VL90.png","188","test",".","image-keyboard-response","380","248599","0.0-3.0-1.188","false"
"513","ImagesSoccer/VR100.png","190","test",".","image-keyboard-response","382","249613","0.0-3.0-1.189","true"
"551","ImagesTennis/TR92.5.png","190","test",",","image-keyboard-response","384","250666","0.0-3.0-1.190","false"
"541","ImagesSoccer/VR107.5.png","190","test",".","image-keyboard-response","386","251710","0.0-3.0-1.191","true"
"649","ImagesDirect/VR102.5.png","190","test",".","image-keyboard-response","388","252861","0.0-3.0-1.192","true"
"469","ImagesSoccer/VR105.png","190","test",".","image-keyboard-response","390","253831","0.0-3.0-1.193","true"
"678","ImagesTennis/TL90.png","190","test",".","image-keyboard-response","392","255012","0.0-3.0-1.194","true"
"501","ImagesSoccer/VL102.5.png","188","test",",","image-keyboard-response","394","256014","0.0-3.0-1.195","true"
"678","ImagesDirect/VL95.png","188","test",".","image-keyboard-response","396","257193","0.0-3.0-1.196","false"
"561","ImagesTennis/TR107.5.png","190","test",".","image-keyboard-response","398","258256","0.0-3.0-1.197","true"
"567","ImagesSoccer/VR102.5.png","190","test",".","image-keyboard-response","400","259324","0.0-3.0-1.198","true"
"547","ImagesDirect/VR105.png","190","test",".","image-keyboard-response","402","260374","0.0-3.0-1.199","true"
"1205","ImagesDirect/VL90.png","190","test",".","image-keyboard-response","404","262081","0.0-3.0-1.200","true"
"624","ImagesTennis/TL95.png","188","test",".","image-keyboard-response","406","263207","0.0-3.0-1.201","false"
"629","ImagesDirect/VL100.png","188","test",".","image-keyboard-response","408","264340","0.0-3.0-1.202","false"
"1488","ImagesDirect/VR97.5.png","188","test",",","image-keyboard-response","410","266329","0.0-3.0-1.203","true"
"1293","ImagesSoccer/VR95.png","188","test",",","image-keyboard-response","412","268123","0.0-3.0-1.204","true"
"655","ImagesTennis/TL110.png","188","test",",","image-keyboard-response","414","269281","0.0-3.0-1.205","true"
"1088","ImagesDirect/VL92.5.png","190","test",".","image-keyboard-response","416","270870","0.0-3.0-1.206","true"
"1001","ImagesSoccer/VL100.png","188","test",".","image-keyboard-response","418","272373","0.0-3.0-1.207","false"
"602","ImagesTennis/TR100.png","190","test",".","image-keyboard-response","420","273477","0.0-3.0-1.208","true"
"633","ImagesDirect/VL105.png","190","test",",","image-keyboard-response","422","274611","0.0-3.0-1.209","false"
"936","ImagesSoccer/VL107.5.png","188","test",",","image-keyboard-response","424","276048","0.0-3.0-1.210","true"
"848","ImagesSoccer/VL95.png","190","test",".","image-keyboard-response","426","277398","0.0-3.0-1.211","true"
"521","ImagesDirect/VL110.png","188","test",",","image-keyboard-response","428","278420","0.0-3.0-1.212","true"
"839","ImagesTennis/TL107.5.png","188","test",",","image-keyboard-response","430","279761","0.0-3.0-1.213","true"
"843","ImagesSoccer/VL105.png","188","test",",","image-keyboard-response","432","281106","0.0-3.0-1.214","true"
"605","ImagesDirect/VR95.png","190","test",",","image-keyboard-response","434","282213","0.0-3.0-1.215","false"
"502","ImagesTennis/TL97.5.png","188","test",".","image-keyboard-response","436","283218","0.0-3.0-1.216","false"
"469","ImagesSoccer/VL102.5.png","188","test",",","image-keyboard-response","438","284188","0.0-3.0-1.217","true"
"1190","ImagesDirect/VR90.png","188","test",",","image-keyboard-response","440","285881","0.0-3.0-1.218","true"
"659","ImagesTennis/TR110.png","190","test",".","image-keyboard-response","442","287043","0.0-3.0-1.219","true"
"491","ImagesSoccer/VR107.5.png","190","test",".","image-keyboard-response","444","288036","0.0-3.0-1.220","true"
"921","ImagesDirect/VR97.5.png","190","test",",","image-keyboard-response","446","289461","0.0-3.0-1.221","false"
"763","ImagesSoccer/VL92.5.png","190","test",".","image-keyboard-response","448","290725","0.0-3.0-1.222","true"
"593","ImagesSoccer/VL100.png","188","test",".","image-keyboard-response","450","291820","0.0-3.0-1.223","false"
"833","ImagesTennis/TL105.png","188","test",",","image-keyboard-response","452","293156","0.0-3.0-1.224","true"
"581","ImagesSoccer/VR95.png","190","test",",","image-keyboard-response","454","294238","0.0-3.0-1.225","false"
"720","ImagesDirect/VL90.png","190","test",".","image-keyboard-response","456","295460","0.0-3.0-1.226","true"
"672","ImagesDirect/VL102.5.png","188","test",",","image-keyboard-response","458","296634","0.0-3.0-1.227","true"
"582","ImagesSoccer/VR110.png","190","test",".","image-keyboard-response","460","297718","0.0-3.0-1.228","true"
"621","ImagesDirect/VR105.png","190","test",".","image-keyboard-response","462","298840","0.0-3.0-1.229","true"
"990","ImagesSoccer/VR92.5.png","188","test",",","image-keyboard-response","464","300331","0.0-3.0-1.230","true"
"971","ImagesSoccer/VR97.5.png","188","test",",","image-keyboard-response","466","301805","0.0-3.0-1.231","true"
"610","ImagesTennis/TL107.5.png","188","test",",","image-keyboard-response","468","302917","0.0-3.0-1.232","true"
"655","ImagesDirect/VL110.png","188","test",",","image-keyboard-response","470","304075","0.0-3.0-1.233","true"
"1620","ImagesTennis/TR95.png","190","test",",","image-keyboard-response","472","306196","0.0-3.0-1.234","false"
"896","ImagesTennis/TL95.png","190","test",".","image-keyboard-response","474","307594","0.0-3.0-1.235","true"
"1158","ImagesTennis/TL110.png","188","test",",","image-keyboard-response","476","309256","0.0-3.0-1.236","true"
"460","ImagesSoccer/VL110.png","188","test",",","image-keyboard-response","478","310218","0.0-3.0-1.237","true"
"520","ImagesDirect/VR102.5.png","190","test",".","image-keyboard-response","480","311240","0.0-3.0-1.238","true"
"502","ImagesDirect/VR107.5.png","190","test",".","image-keyboard-response","482","312243","0.0-3.0-1.239","true"
"831","ImagesTennis/TR102.5.png","190","test",".","image-keyboard-response","484","313576","0.0-3.0-1.240","true"
"570","ImagesDirect/VR100.png","190","test",".","image-keyboard-response","486","314648","0.0-3.0-1.241","true"
"693","ImagesTennis/TR100.png","188","test",".","image-keyboard-response","488","315842","0.0-3.0-1.242","false"
"801","ImagesSoccer/VR105.png","190","test",".","image-keyboard-response","490","317145","0.0-3.0-1.243","true"
"1908","ImagesSoccer/VR90.png","190","test",",","image-keyboard-response","492","319555","0.0-3.0-1.244","false"
"947","ImagesTennis/TR97.5.png","188","test",",","image-keyboard-response","494","321004","0.0-3.0-1.245","true"
"753","ImagesSoccer/VL90.png","190","test",".","image-keyboard-response","496","322260","0.0-3.0-1.246","true"
"1679","ImagesTennis/TL90.png","190","test",".","image-keyboard-response","498","324441","0.0-3.0-1.247","true"
"1754","ImagesSoccer/VL95.png","188","test",".","image-keyboard-response","500","326697","0.0-3.0-1.248","false"
"912","ImagesDirect/VR95.png","190","test",",","image-keyboard-response","502","328111","0.0-3.0-1.249","false"
"3868","ImagesSoccer/VL107.5.png","188","test",",","image-keyboard-response","504","332480","0.0-3.0-1.250","true"
"7876","ImagesDirect/VL95.png","188","test",".","image-keyboard-response","506","340857","0.0-3.0-1.251","false"
"2690","ImagesDirect/VR110.png","190","test",".","image-keyboard-response","508","344049","0.0-3.0-1.252","true"
"3889","ImagesSoccer/VL105.png","188","test",",","image-keyboard-response","510","348440","0.0-3.0-1.253","true"
"1360","ImagesDirect/VL97.5.png","188","test",".","image-keyboard-response","512","350302","0.0-3.0-1.254","false"
"884","ImagesSoccer/VR102.5.png","190","test",".","image-keyboard-response","514","351689","0.0-3.0-1.255","true"
"1078","ImagesSoccer/VL97.5.png","190","test",".","image-keyboard-response","516","353269","0.0-3.0-1.256","true"
"664","ImagesTennis/TR90.png","190","test",",","image-keyboard-response","518","354434","0.0-3.0-1.257","false"
"510","ImagesDirect/VL92.5.png","188","test",".","image-keyboard-response","520","355446","0.0-3.0-1.258","false"
"766","ImagesDirect/VL100.png","188","test",".","image-keyboard-response","522","356714","0.0-3.0-1.259","false"
"1116","ImagesTennis/TL100.png","190","test",".","image-keyboard-response","524","358333","0.0-3.0-1.260","true"
"673","ImagesSoccer/VR100.png","190","test",".","image-keyboard-response","526","359507","0.0-3.0-1.261","true"
"711","ImagesDirect/VL107.5.png","188","test",",","image-keyboard-response","528","360721","0.0-3.0-1.262","true"
"868","ImagesDirect/VR92.5.png","188","test",",","image-keyboard-response","530","362091","0.0-3.0-1.263","true"
"1099","ImagesTennis/TR92.5.png","188","test",",","image-keyboard-response","532","363692","0.0-3.0-1.264","true"
"772","ImagesTennis/TR107.5.png","190","test",".","image-keyboard-response","534","364967","0.0-3.0-1.265","true"
"688","ImagesTennis/TL102.5.png","190","test",",","image-keyboard-response","536","366156","0.0-3.0-1.266","false"
"613","ImagesTennis/TR105.png","190","test",".","image-keyboard-response","538","367270","0.0-3.0-1.267","true"
"752","ImagesTennis/TL92.5.png","190","test",".","image-keyboard-response","540","368524","0.0-3.0-1.268","true"
"591","ImagesDirect/VL105.png","188","test",",","image-keyboard-response","542","369617","0.0-3.0-1.269","true"
"1751","ImagesCoins/10L95.png","190","test",".","image-keyboard-response","544","371870","0.0-4.0-1.0","true"
"1866","ImagesCoins/10L107.5.png","188","test",",","image-keyboard-response","546","374237","0.0-4.0-1.1","true"
"1137","ImagesCoins/10L110.png","188","test",",","image-keyboard-response","548","375875","0.0-4.0-1.2","true"
"663","ImagesCoins/10R107.5.png","190","test",".","image-keyboard-response","550","377039","0.0-4.0-1.3","true"
"627","ImagesCoins/10R105.png","190","test",".","image-keyboard-response","552","378168","0.0-4.0-1.4","true"
"803","ImagesCoins/10R90.png","188","test",",","image-keyboard-response","554","379473","0.0-4.0-1.5","true"
"1490","ImagesCoins/10L102.5.png","188","test",",","image-keyboard-response","556","381464","0.0-4.0-1.6","true"
"1659","ImagesCoins/10L97.5.png","190","test",".","image-keyboard-response","558","383626","0.0-4.0-1.7","true"
"1098","ImagesCoins/10R92.5.png","188","test",",","image-keyboard-response","560","385225","0.0-4.0-1.8","true"
"1952","ImagesCoins/10R97.5.png","188","test",",","image-keyboard-response","562","387679","0.0-4.0-1.9","true"
"937","ImagesCoins/10L105.png","188","test",",","image-keyboard-response","564","389118","0.0-4.0-1.10","true"
"763","ImagesCoins/10R102.5.png","190","test",".","image-keyboard-response","566","390383","0.0-4.0-1.11","true"
"1376","ImagesCoins/10R95.png","188","test",",","image-keyboard-response","568","392261","0.0-4.0-1.12","true"
"1160","ImagesCoins/10L92.5.png","190","test",".","image-keyboard-response","570","393922","0.0-4.0-1.13","true"
"1726","ImagesCoins/10R100.png","190","test",".","image-keyboard-response","572","396151","0.0-4.0-1.14","true"
"790","ImagesCoins/10L90.png","190","test",".","image-keyboard-response","574","397443","0.0-4.0-1.15","true"
"1329","ImagesCoins/10L100.png","190","test",".","image-keyboard-response","576","399274","0.0-4.0-1.16","true"
"856","ImagesCoins/10R110.png","190","test",".","image-keyboard-response","578","400632","0.0-4.0-1.17","true"
"900","ImagesCoins/10L102.5.png","190","test",",","image-keyboard-response","580","402035","0.0-4.0-1.18","false"
"652","ImagesCoins/10R105.png","190","test",".","image-keyboard-response","582","403189","0.0-4.0-1.19","true"
"663","ImagesCoins/10R95.png","190","test",",","image-keyboard-response","584","404355","0.0-4.0-1.20","false"
"832","ImagesCoins/10R92.5.png","188","test",",","image-keyboard-response","586","405688","0.0-4.0-1.21","true"
"637","ImagesCoins/10L97.5.png","190","test",".","image-keyboard-response","588","406827","0.0-4.0-1.22","true"
"636","ImagesCoins/10L95.png","190","test",".","image-keyboard-response","590","407965","0.0-4.0-1.23","true"
"1226","ImagesCoins/10R90.png","188","test",",","image-keyboard-response","592","409693","0.0-4.0-1.24","true"
"898","ImagesCoins/10L110.png","188","test",",","image-keyboard-response","594","411092","0.0-4.0-1.25","true"
"734","ImagesCoins/10L90.png","190","test",".","image-keyboard-response","596","412328","0.0-4.0-1.26","true"
"480","ImagesCoins/10R107.5.png","190","test",".","image-keyboard-response","598","413311","0.0-4.0-1.27","true"
"1066","ImagesCoins/10L92.5.png","190","test",".","image-keyboard-response","600","414879","0.0-4.0-1.28","true"
"855","ImagesCoins/10R102.5.png","190","test",".","image-keyboard-response","602","416235","0.0-4.0-1.29","true"
"1004","ImagesCoins/10L100.png","190","test",".","image-keyboard-response","604","417741","0.0-4.0-1.30","true"
"701","ImagesCoins/10R97.5.png","188","test",",","image-keyboard-response","606","418943","0.0-4.0-1.31","true"
"838","ImagesCoins/10L105.png","190","test",",","image-keyboard-response","608","420283","0.0-4.0-1.32","false"
"678","ImagesCoins/10L107.5.png","188","test",",","image-keyboard-response","610","421463","0.0-4.0-1.33","true"
"790","ImagesCoins/10R110.png","190","test",".","image-keyboard-response","612","422755","0.0-4.0-1.34","true"
"2049","ImagesCoins/10R100.png","190","test",".","image-keyboard-response","614","425306","0.0-4.0-1.35","true"
"679","ImagesCoins/10L95.png","190","test",".","image-keyboard-response","616","426488","0.0-4.0-1.36","true"
"872","ImagesCoins/10L100.png","190","test",".","image-keyboard-response","618","427863","0.0-4.0-1.37","true"
"904","ImagesCoins/10R90.png","188","test",",","image-keyboard-response","620","429269","0.0-4.0-1.38","true"
"710","ImagesCoins/10L110.png","188","test",",","image-keyboard-response","622","430481","0.0-4.0-1.39","true"
"648","ImagesCoins/10R110.png","190","test",".","image-keyboard-response","624","431632","0.0-4.0-1.40","true"
"1176","ImagesCoins/10L97.5.png","190","test",".","image-keyboard-response","626","433311","0.0-4.0-1.41","true"
"628","ImagesCoins/10L105.png","188","test",",","image-keyboard-response","628","434441","0.0-4.0-1.42","true"
"1331","ImagesCoins/10R92.5.png","188","test",",","image-keyboard-response","630","436274","0.0-4.0-1.43","true"
"781","ImagesCoins/10L102.5.png","188","test",",","image-keyboard-response","632","437559","0.0-4.0-1.44","true"
"1050","ImagesCoins/10R102.5.png","190","test",".","image-keyboard-response","634","439112","0.0-4.0-1.45","true"
"730","ImagesCoins/10R105.png","190","test",".","image-keyboard-response","636","440344","0.0-4.0-1.46","true"
"1775","ImagesCoins/10R95.png","190","test",",","image-keyboard-response","638","442621","0.0-4.0-1.47","false"
"928","ImagesCoins/10R100.png","190","test",".","image-keyboard-response","640","444050","0.0-4.0-1.48","true"
"2468","ImagesCoins/10L92.5.png","190","test",".","image-keyboard-response","642","447021","0.0-4.0-1.49","true"
"1649","ImagesCoins/10L90.png","190","test",".","image-keyboard-response","644","449171","0.0-4.0-1.50","true"
"892","ImagesCoins/10R97.5.png","188","test",",","image-keyboard-response","646","450565","0.0-4.0-1.51","true"
"694","ImagesCoins/10R107.5.png","190","test",".","image-keyboard-response","648","451760","0.0-4.0-1.52","true"
"1831","ImagesCoins/10L107.5.png","190","test",",","image-keyboard-response","650","454093","0.0-4.0-1.53","false"
"1296","ImagesCoins/10L100.png","190","test",".","image-keyboard-response","652","455891","0.0-4.0-1.54","true"
"695","ImagesCoins/10R105.png","190","test",".","image-keyboard-response","654","457088","0.0-4.0-1.55","true"
"3676","ImagesCoins/10R102.5.png","190","test",".","image-keyboard-response","656","461266","0.0-4.0-1.56","true"
"511","ImagesCoins/10R107.5.png","190","test",".","image-keyboard-response","658","462279","0.0-4.0-1.57","true"
"784","ImagesCoins/10R110.png","190","test",".","image-keyboard-response","660","463565","0.0-4.0-1.58","true"
"750","ImagesCoins/10L97.5.png","190","test",".","image-keyboard-response","662","464816","0.0-4.0-1.59","true"
"520","ImagesCoins/10L110.png","188","test",",","image-keyboard-response","664","465838","0.0-4.0-1.60","true"
"652","ImagesCoins/10L90.png","190","test",".","image-keyboard-response","666","466992","0.0-4.0-1.61","true"
"883","ImagesCoins/10L102.5.png","190","test",",","image-keyboard-response","668","468376","0.0-4.0-1.62","false"
"785","ImagesCoins/10R95.png","188","test",",","image-keyboard-response","670","469662","0.0-4.0-1.63","true"
"910","ImagesCoins/10R97.5.png","188","test",",","image-keyboard-response","672","471073","0.0-4.0-1.64","true"
"591","ImagesCoins/10R90.png","188","test",",","image-keyboard-response","674","472166","0.0-4.0-1.65","true"
"1025","ImagesCoins/10L107.5.png","188","test",",","image-keyboard-response","676","473693","0.0-4.0-1.66","true"
"2408","ImagesCoins/10R100.png","190","test",".","image-keyboard-response","678","476603","0.0-4.0-1.67","true"
"621","ImagesCoins/10L95.png","190","test",".","image-keyboard-response","680","477726","0.0-4.0-1.68","true"
"533","ImagesCoins/10L92.5.png","190","test",".","image-keyboard-response","682","478760","0.0-4.0-1.69","true"
"530","ImagesCoins/10R92.5.png","188","test",",","image-keyboard-response","684","479792","0.0-4.0-1.70","true"
"740","ImagesCoins/10L105.png","190","test",",","image-keyboard-response","686","481034","0.0-4.0-1.71","false"
"751","ImagesCoins/10L90.png","190","test",".","image-keyboard-response","688","482286","0.0-4.0-1.72","true"
"1460","ImagesCoins/10R90.png","188","test",",","image-keyboard-response","690","484248","0.0-4.0-1.73","true"
"1176","ImagesCoins/10R95.png","188","test",",","image-keyboard-response","692","485925","0.0-4.0-1.74","true"
"1426","ImagesCoins/10R110.png","188","test",".","image-keyboard-response","694","487853","0.0-4.0-1.75","false"
"667","ImagesCoins/10R97.5.png","188","test",",","image-keyboard-response","696","489022","0.0-4.0-1.76","true"
"788","ImagesCoins/10R105.png","190","test",".","image-keyboard-response","698","490312","0.0-4.0-1.77","true"
"1220","ImagesCoins/10L105.png","190","test",",","image-keyboard-response","700","492036","0.0-4.0-1.78","false"
"1860","ImagesCoins/10L110.png","190","test",",","image-keyboard-response","702","494398","0.0-4.0-1.79","false"
"1139","ImagesCoins/10R100.png","190","test",".","image-keyboard-response","704","496039","0.0-4.0-1.80","true"
"676","ImagesCoins/10R107.5.png","190","test",".","image-keyboard-response","706","497217","0.0-4.0-1.81","true"
"1343","ImagesCoins/10R92.5.png","190","test",",","image-keyboard-response","708","499063","0.0-4.0-1.82","false"
"1230","ImagesCoins/10L100.png","190","test",".","image-keyboard-response","710","500796","0.0-4.0-1.83","true"
"733","ImagesCoins/10L107.5.png","188","test",",","image-keyboard-response","712","502031","0.0-4.0-1.84","true"
"760","ImagesCoins/10L97.5.png","190","test",".","image-keyboard-response","714","503293","0.0-4.0-1.85","true"
"1951","ImagesCoins/10R102.5.png","190","test",".","image-keyboard-response","716","505748","0.0-4.0-1.86","true"
"784","ImagesCoins/10L92.5.png","190","test",".","image-keyboard-response","718","507033","0.0-4.0-1.87","true"
"859","ImagesCoins/10L102.5.png","190","test",",","image-keyboard-response","720","508394","0.0-4.0-1.88","false"
"828","ImagesCoins/10L95.png","190","test",".","image-keyboard-response","722","509723","0.0-4.0-1.89","true"
