"rt","stimulus","key_press","test_part","correct_response","trial_type","trial_index","time_elapsed","internal_node_id","correct"
"1587","ImagesCoins/10L110.png","188","test",",","image-keyboard-response","4","40359","0.0-3.0-1.0","true"
"1143","ImagesCoins/10R105.png","190","test",".","image-keyboard-response","6","42008","0.0-3.0-1.1","true"
"1831","ImagesCoins/10R97.5.png","190","test",",","image-keyboard-response","8","44344","0.0-3.0-1.2","false"
"1064","ImagesCoins/10R102.5.png","190","test",".","image-keyboard-response","10","45912","0.0-3.0-1.3","true"
"1664","ImagesCoins/10R100.png","190","test",".","image-keyboard-response","12","48080","0.0-3.0-1.4","true"
"1367","ImagesCoins/10R107.5.png","190","test",".","image-keyboard-response","14","49951","0.0-3.0-1.5","true"
"1616","ImagesCoins/10R95.png","190","test",",","image-keyboard-response","16","52072","0.0-3.0-1.6","false"
"777","ImagesCoins/10L97.5.png","188","test",".","image-keyboard-response","18","53353","0.0-3.0-1.7","false"
"2030","ImagesCoins/10L92.5.png","190","test",".","image-keyboard-response","20","55888","0.0-3.0-1.8","true"
"1479","ImagesCoins/10L90.png","190","test",".","image-keyboard-response","22","57872","0.0-3.0-1.9","true"
"1497","ImagesCoins/10L102.5.png","188","test",",","image-keyboard-response","24","59872","0.0-3.0-1.10","true"
"1329","ImagesCoins/10L105.png","188","test",",","image-keyboard-response","26","61704","0.0-3.0-1.11","true"
"1520","ImagesCoins/10L95.png","190","test",".","image-keyboard-response","28","63729","0.0-3.0-1.12","true"
"1617","ImagesCoins/10R90.png","188","test",",","image-keyboard-response","30","65848","0.0-3.0-1.13","true"
"1665","ImagesCoins/10L100.png","188","test",".","image-keyboard-response","32","68016","0.0-3.0-1.14","false"
"2929","ImagesCoins/10R92.5.png","188","test",",","image-keyboard-response","34","71448","0.0-3.0-1.15","true"
"1193","ImagesCoins/10L107.5.png","188","test",",","image-keyboard-response","36","73145","0.0-3.0-1.16","true"
"834","ImagesCoins/10R110.png","190","test",".","image-keyboard-response","38","74481","0.0-3.0-1.17","true"
"934","ImagesCoins/10R90.png","188","test",",","image-keyboard-response","40","75920","0.0-3.0-1.18","true"
"960","ImagesCoins/10L102.5.png","188","test",",","image-keyboard-response","42","77386","0.0-3.0-1.19","true"
"1239","ImagesCoins/10R92.5.png","188","test",",","image-keyboard-response","44","79129","0.0-3.0-1.20","true"
"1000","ImagesCoins/10R102.5.png","190","test",".","image-keyboard-response","46","80633","0.0-3.0-1.21","true"
"2936","ImagesCoins/10R100.png","190","test",".","image-keyboard-response","48","84073","0.0-3.0-1.22","true"
"1047","ImagesCoins/10L110.png","188","test",",","image-keyboard-response","50","85625","0.0-3.0-1.23","true"
"848","ImagesCoins/10R107.5.png","190","test",".","image-keyboard-response","52","86977","0.0-3.0-1.24","true"
"889","ImagesCoins/10L105.png","188","test",",","image-keyboard-response","54","88369","0.0-3.0-1.25","true"
"1121","ImagesCoins/10L100.png","188","test",".","image-keyboard-response","56","89992","0.0-3.0-1.26","false"
"2794","ImagesCoins/10L92.5.png","190","test",".","image-keyboard-response","58","93289","0.0-3.0-1.27","true"
"2919","ImagesCoins/10L95.png","190","test",".","image-keyboard-response","60","96713","0.0-3.0-1.28","true"
"1713","ImagesCoins/10R105.png","190","test",".","image-keyboard-response","62","98929","0.0-3.0-1.29","true"
"1441","ImagesCoins/10R110.png","190","test",".","image-keyboard-response","64","100873","0.0-3.0-1.30","true"
"3577","ImagesCoins/10R97.5.png","188","test",",","image-keyboard-response","66","104953","0.0-3.0-1.31","true"
"1298","ImagesCoins/10L90.png","190","test",".","image-keyboard-response","68","106753","0.0-3.0-1.32","true"
"1153","ImagesCoins/10L97.5.png","188","test",".","image-keyboard-response","70","108409","0.0-3.0-1.33","false"
"1057","ImagesCoins/10L107.5.png","188","test",",","image-keyboard-response","72","109970","0.0-3.0-1.34","true"
"2745","ImagesCoins/10R95.png","188","test",",","image-keyboard-response","74","113217","0.0-3.0-1.35","true"
"1994","ImagesCoins/10R95.png","188","test",",","image-keyboard-response","76","115713","0.0-3.0-1.36","true"
"944","ImagesCoins/10R105.png","190","test",".","image-keyboard-response","78","117161","0.0-3.0-1.37","true"
"2786","ImagesCoins/10R97.5.png","188","test",",","image-keyboard-response","80","120450","0.0-3.0-1.38","true"
"865","ImagesCoins/10R110.png","190","test",".","image-keyboard-response","82","121817","0.0-3.0-1.39","true"
"1466","ImagesCoins/10L110.png","188","test",",","image-keyboard-response","84","123785","0.0-3.0-1.40","true"
"2066","ImagesCoins/10L92.5.png","190","test",".","image-keyboard-response","86","126353","0.0-3.0-1.41","true"
"1785","ImagesCoins/10R102.5.png","188","test",".","image-keyboard-response","88","128641","0.0-3.0-1.42","false"
"1640","ImagesCoins/10L107.5.png","188","test",",","image-keyboard-response","90","130785","0.0-3.0-1.43","true"
"1865","ImagesCoins/10R90.png","188","test",",","image-keyboard-response","92","133153","0.0-3.0-1.44","true"
"1113","ImagesCoins/10L105.png","188","test",",","image-keyboard-response","94","134769","0.0-3.0-1.45","true"
"1969","ImagesCoins/10L95.png","188","test",".","image-keyboard-response","96","137241","0.0-3.0-1.46","false"
"1561","ImagesCoins/10L90.png","190","test",".","image-keyboard-response","98","139306","0.0-3.0-1.47","true"
"913","ImagesCoins/10L100.png","188","test",".","image-keyboard-response","100","140721","0.0-3.0-1.48","false"
"1283","ImagesCoins/10R92.5.png","188","test",",","image-keyboard-response","102","142506","0.0-3.0-1.49","true"
"1026","ImagesCoins/10L102.5.png","188","test",",","image-keyboard-response","104","144034","0.0-3.0-1.50","true"
"2409","ImagesCoins/10L97.5.png","188","test",".","image-keyboard-response","106","146945","0.0-3.0-1.51","false"
"914","ImagesCoins/10R107.5.png","190","test",".","image-keyboard-response","108","148361","0.0-3.0-1.52","true"
"2987","ImagesCoins/10R100.png","190","test",".","image-keyboard-response","110","151850","0.0-3.0-1.53","true"
"2346","ImagesCoins/10L90.png","190","test",".","image-keyboard-response","112","154698","0.0-3.0-1.54","true"
"1009","ImagesCoins/10R107.5.png","190","test",".","image-keyboard-response","114","156209","0.0-3.0-1.55","true"
"1786","ImagesCoins/10R100.png","188","test",".","image-keyboard-response","116","158498","0.0-3.0-1.56","false"
"898","ImagesCoins/10R105.png","190","test",".","image-keyboard-response","118","159898","0.0-3.0-1.57","true"
"713","ImagesCoins/10L110.png","188","test",",","image-keyboard-response","120","161114","0.0-3.0-1.58","true"
"1513","ImagesCoins/10L92.5.png","190","test",".","image-keyboard-response","122","163130","0.0-3.0-1.59","true"
"938","ImagesCoins/10R102.5.png","190","test",".","image-keyboard-response","124","164569","0.0-3.0-1.60","true"
"2001","ImagesCoins/10R90.png","188","test",",","image-keyboard-response","126","167074","0.0-3.0-1.61","true"
"945","ImagesCoins/10L100.png","188","test",".","image-keyboard-response","128","168521","0.0-3.0-1.62","false"
"1122","ImagesCoins/10R110.png","190","test",".","image-keyboard-response","130","170145","0.0-3.0-1.63","true"
"1162","ImagesCoins/10L105.png","188","test",",","image-keyboard-response","132","171810","0.0-3.0-1.64","true"
"1955","ImagesCoins/10L95.png","190","test",".","image-keyboard-response","134","174266","0.0-3.0-1.65","true"
"737","ImagesCoins/10L107.5.png","188","test",",","image-keyboard-response","136","175506","0.0-3.0-1.66","true"
"886","ImagesCoins/10L102.5.png","188","test",",","image-keyboard-response","138","176898","0.0-3.0-1.67","true"
"865","ImagesCoins/10L97.5.png","188","test",".","image-keyboard-response","140","178265","0.0-3.0-1.68","false"
"1451","ImagesCoins/10R95.png","188","test",",","image-keyboard-response","142","180218","0.0-3.0-1.69","true"
"1626","ImagesCoins/10R97.5.png","190","test",",","image-keyboard-response","144","182345","0.0-3.0-1.70","false"
"977","ImagesCoins/10R92.5.png","188","test",",","image-keyboard-response","146","183826","0.0-3.0-1.71","true"
"1002","ImagesCoins/10R107.5.png","190","test",".","image-keyboard-response","148","185330","0.0-3.0-1.72","true"
"1274","ImagesCoins/10R92.5.png","188","test",",","image-keyboard-response","150","187105","0.0-3.0-1.73","true"
"1810","ImagesCoins/10R100.png","190","test",".","image-keyboard-response","152","189418","0.0-3.0-1.74","true"
"808","ImagesCoins/10L97.5.png","188","test",".","image-keyboard-response","154","190729","0.0-3.0-1.75","false"
"938","ImagesCoins/10R95.png","190","test",",","image-keyboard-response","156","192169","0.0-3.0-1.76","false"
"787","ImagesCoins/10L102.5.png","188","test",",","image-keyboard-response","158","193458","0.0-3.0-1.77","true"
"1762","ImagesCoins/10L95.png","188","test",".","image-keyboard-response","160","195721","0.0-3.0-1.78","false"
"833","ImagesCoins/10R97.5.png","190","test",",","image-keyboard-response","162","197057","0.0-3.0-1.79","false"
"1298","ImagesCoins/10R90.png","188","test",",","image-keyboard-response","164","198857","0.0-3.0-1.80","true"
"1113","ImagesCoins/10L100.png","188","test",".","image-keyboard-response","166","200473","0.0-3.0-1.81","false"
"882","ImagesCoins/10R110.png","190","test",".","image-keyboard-response","168","201857","0.0-3.0-1.82","true"
"761","ImagesCoins/10L107.5.png","188","test",",","image-keyboard-response","170","203122","0.0-3.0-1.83","true"
"914","ImagesCoins/10L110.png","188","test",",","image-keyboard-response","172","204537","0.0-3.0-1.84","true"
"1137","ImagesCoins/10R105.png","190","test",".","image-keyboard-response","174","206178","0.0-3.0-1.85","true"
"2705","ImagesCoins/10L92.5.png","190","test",".","image-keyboard-response","176","209385","0.0-3.0-1.86","true"
"737","ImagesCoins/10L105.png","188","test",",","image-keyboard-response","178","210625","0.0-3.0-1.87","true"
"1418","ImagesCoins/10L90.png","190","test",".","image-keyboard-response","180","212545","0.0-3.0-1.88","true"
"2282","ImagesCoins/10R102.5.png","190","test",".","image-keyboard-response","182","215329","0.0-3.0-1.89","true"
"3344","ImagesDirect/VR102.5.png","190","test",".","image-keyboard-response","184","219177","0.0-4.0-1.0","true"
"1946","ImagesSoccer/VR95.png","188","test",",","image-keyboard-response","186","221625","0.0-4.0-1.1","true"
"2073","ImagesTennis/TR92.5.png","188","test",",","image-keyboard-response","188","224202","0.0-4.0-1.2","true"
"1209","ImagesDirect/VL100.png","188","test",".","image-keyboard-response","190","225913","0.0-4.0-1.3","false"
"1568","ImagesSoccer/VR92.5.png","188","test",",","image-keyboard-response","192","227985","0.0-4.0-1.4","true"
"3897","ImagesTennis/TR110.png","190","test",".","image-keyboard-response","194","232385","0.0-4.0-1.5","true"
"1505","ImagesSoccer/VL105.png","188","test",",","image-keyboard-response","196","234393","0.0-4.0-1.6","true"
"1249","ImagesDirect/VR110.png","190","test",".","image-keyboard-response","198","236145","0.0-4.0-1.7","true"
"7922","ImagesSoccer/VL90.png","190","test",".","image-keyboard-response","200","244569","0.0-4.0-1.8","true"
"2385","ImagesTennis/TR107.5.png","190","test",".","image-keyboard-response","202","247457","0.0-4.0-1.9","true"
"2057","ImagesDirect/VR90.png","188","test",",","image-keyboard-response","204","250017","0.0-4.0-1.10","true"
"1925","ImagesDirect/VR95.png","190","test",",","image-keyboard-response","206","252449","0.0-4.0-1.11","false"
"1753","ImagesDirect/VL107.5.png","188","test",",","image-keyboard-response","208","254705","0.0-4.0-1.12","true"
"1316","ImagesDirect/VR107.5.png","190","test",".","image-keyboard-response","210","256523","0.0-4.0-1.13","true"
"1887","ImagesTennis/TL100.png","190","test",".","image-keyboard-response","212","258913","0.0-4.0-1.14","true"
"1657","ImagesDirect/VR105.png","190","test",".","image-keyboard-response","214","261073","0.0-4.0-1.15","true"
"5552","ImagesTennis/TR100.png","188","test",".","image-keyboard-response","216","267129","0.0-4.0-1.16","false"
"1633","ImagesDirect/VL110.png","188","test",",","image-keyboard-response","218","269265","0.0-4.0-1.17","true"
"2162","ImagesDirect/VR92.5.png","188","test",",","image-keyboard-response","220","271929","0.0-4.0-1.18","true"
"1457","ImagesSoccer/VR107.5.png","190","test",".","image-keyboard-response","222","273888","0.0-4.0-1.19","true"
"5850","ImagesSoccer/VL97.5.png","188","test",".","image-keyboard-response","224","280242","0.0-4.0-1.20","false"
"1064","ImagesSoccer/VL107.5.png","188","test",",","image-keyboard-response","226","281808","0.0-4.0-1.21","true"
"2105","ImagesDirect/VR97.5.png","190","test",",","image-keyboard-response","228","284416","0.0-4.0-1.22","false"
"1337","ImagesSoccer/VR105.png","190","test",".","image-keyboard-response","230","286257","0.0-4.0-1.23","true"
"4089","ImagesTennis/TR97.5.png","188","test",",","image-keyboard-response","232","290849","0.0-4.0-1.24","true"
"5985","ImagesSoccer/VL92.5.png","190","test",".","image-keyboard-response","234","297336","0.0-4.0-1.25","true"
"1818","ImagesSoccer/VR90.png","188","test",",","image-keyboard-response","236","299665","0.0-4.0-1.26","true"
"3341","ImagesTennis/TR102.5.png","188","test",".","image-keyboard-response","238","303513","0.0-4.0-1.27","false"
"1856","ImagesTennis/TR90.png","188","test",",","image-keyboard-response","240","305873","0.0-4.0-1.28","true"
"3168","ImagesTennis/TL97.5.png","190","test",".","image-keyboard-response","242","309544","0.0-4.0-1.29","true"
"1895","ImagesSoccer/VL102.5.png","188","test",",","image-keyboard-response","244","311945","0.0-4.0-1.30","true"
"1935","ImagesDirect/VL102.5.png","188","test",",","image-keyboard-response","246","314384","0.0-4.0-1.31","true"
"2576","ImagesSoccer/VL100.png","188","test",".","image-keyboard-response","248","317464","0.0-4.0-1.32","false"
"1673","ImagesTennis/TL110.png","188","test",",","image-keyboard-response","250","319640","0.0-4.0-1.33","true"
"1376","ImagesTennis/TL95.png","190","test",".","image-keyboard-response","252","321520","0.0-4.0-1.34","true"
"2760","ImagesDirect/VL92.5.png","188","test",".","image-keyboard-response","254","324784","0.0-4.0-1.35","false"
"3079","ImagesDirect/VL97.5.png","188","test",".","image-keyboard-response","256","328368","0.0-4.0-1.36","false"
"1455","ImagesSoccer/VR100.png","190","test",".","image-keyboard-response","258","330327","0.0-4.0-1.37","true"
"2850","ImagesSoccer/VL95.png","190","test",".","image-keyboard-response","260","333679","0.0-4.0-1.38","true"
"1585","ImagesDirect/VL105.png","188","test",",","image-keyboard-response","262","335767","0.0-4.0-1.39","true"
"1112","ImagesTennis/TR95.png","188","test",",","image-keyboard-response","264","337383","0.0-4.0-1.40","true"
"1785","ImagesDirect/VL95.png","188","test",".","image-keyboard-response","266","339671","0.0-4.0-1.41","false"
"2017","ImagesTennis/TL102.5.png","188","test",",","image-keyboard-response","268","342192","0.0-4.0-1.42","true"
"2113","ImagesDirect/VL90.png","190","test",".","image-keyboard-response","270","344808","0.0-4.0-1.43","true"
"1129","ImagesSoccer/VR110.png","190","test",".","image-keyboard-response","272","346440","0.0-4.0-1.44","true"
"1489","ImagesDirect/VR100.png","190","test",".","image-keyboard-response","274","348431","0.0-4.0-1.45","true"
"1713","ImagesTennis/TR105.png","190","test",".","image-keyboard-response","276","350647","0.0-4.0-1.46","true"
"1456","ImagesSoccer/VR102.5.png","190","test",".","image-keyboard-response","278","352607","0.0-4.0-1.47","true"
"1432","ImagesSoccer/VR97.5.png","188","test",",","image-keyboard-response","280","354542","0.0-4.0-1.48","true"
"1641","ImagesTennis/TL105.png","188","test",",","image-keyboard-response","282","356688","0.0-4.0-1.49","true"
"952","ImagesTennis/TL90.png","190","test",".","image-keyboard-response","284","358143","0.0-4.0-1.50","true"
"1763","ImagesTennis/TL107.5.png","188","test",",","image-keyboard-response","286","360416","0.0-4.0-1.51","true"
"1236","ImagesTennis/TL92.5.png","190","test",".","image-keyboard-response","288","362160","0.0-4.0-1.52","true"
"1135","ImagesSoccer/VL110.png","188","test",",","image-keyboard-response","290","363799","0.0-4.0-1.53","true"
"3489","ImagesTennis/TR97.5.png","188","test",",","image-keyboard-response","292","367791","0.0-4.0-1.54","true"
"1200","ImagesSoccer/VR95.png","190","test",",","image-keyboard-response","294","369495","0.0-4.0-1.55","false"
"2320","ImagesSoccer/VL90.png","190","test",".","image-keyboard-response","296","372319","0.0-4.0-1.56","true"
"1064","ImagesSoccer/VL107.5.png","188","test",",","image-keyboard-response","298","373886","0.0-4.0-1.57","true"
"1793","ImagesDirect/VL95.png","188","test",".","image-keyboard-response","300","376183","0.0-4.0-1.58","false"
"2240","ImagesTennis/TR102.5.png","190","test",".","image-keyboard-response","302","378926","0.0-4.0-1.59","true"
"3530","ImagesSoccer/VR100.png","190","test",".","image-keyboard-response","304","382959","0.0-4.0-1.60","true"
"2742","ImagesTennis/TL105.png","190","test",",","image-keyboard-response","306","386207","0.0-4.0-1.61","false"
"2824","ImagesTennis/TR105.png","190","test",".","image-keyboard-response","308","389534","0.0-4.0-1.62","true"
"1321","ImagesDirect/VL100.png","188","test",".","image-keyboard-response","310","391358","0.0-4.0-1.63","false"
"1697","ImagesTennis/TL95.png","190","test",".","image-keyboard-response","312","393558","0.0-4.0-1.64","true"
"2497","ImagesDirect/VL92.5.png","188","test",".","image-keyboard-response","314","396559","0.0-4.0-1.65","false"
"792","ImagesDirect/VR110.png","190","test",".","image-keyboard-response","316","397853","0.0-4.0-1.66","true"
"1241","ImagesSoccer/VL102.5.png","188","test",",","image-keyboard-response","318","399598","0.0-4.0-1.67","true"
"5337","ImagesTennis/TL102.5.png","188","test",",","image-keyboard-response","320","405438","0.0-4.0-1.68","true"
"1160","ImagesTennis/TR95.png","188","test",",","image-keyboard-response","322","407102","0.0-4.0-1.69","true"
"1401","ImagesSoccer/VR90.png","188","test",",","image-keyboard-response","324","409006","0.0-4.0-1.70","true"
"1289","ImagesDirect/VL107.5.png","188","test",",","image-keyboard-response","326","410798","0.0-4.0-1.71","true"
"4224","ImagesTennis/TL100.png","190","test",".","image-keyboard-response","328","415526","0.0-4.0-1.72","true"
"1169","ImagesDirect/VR97.5.png","190","test",",","image-keyboard-response","330","417198","0.0-4.0-1.73","false"
"1745","ImagesSoccer/VR92.5.png","188","test",",","image-keyboard-response","332","419446","0.0-4.0-1.74","true"
"3352","ImagesTennis/TL107.5.png","188","test",",","image-keyboard-response","334","423301","0.0-4.0-1.75","true"
"5376","ImagesSoccer/VL100.png","188","test",".","image-keyboard-response","336","429182","0.0-4.0-1.76","false"
"1168","ImagesDirect/VR105.png","190","test",".","image-keyboard-response","338","430853","0.0-4.0-1.77","true"
"2136","ImagesTennis/TL97.5.png","190","test",".","image-keyboard-response","340","433493","0.0-4.0-1.78","true"
"1001","ImagesSoccer/VR102.5.png","190","test",".","image-keyboard-response","342","434997","0.0-4.0-1.79","true"
"889","ImagesSoccer/VL110.png","188","test",",","image-keyboard-response","344","436390","0.0-4.0-1.80","true"
"3057","ImagesDirect/VR90.png","188","test",",","image-keyboard-response","346","439949","0.0-4.0-1.81","true"
"1178","ImagesDirect/VR107.5.png","190","test",".","image-keyboard-response","348","441629","0.0-4.0-1.82","true"
"1359","ImagesDirect/VL105.png","188","test",",","image-keyboard-response","350","443493","0.0-4.0-1.83","true"
"2047","ImagesDirect/VR102.5.png","190","test",".","image-keyboard-response","352","446045","0.0-4.0-1.84","true"
"1841","ImagesDirect/VL102.5.png","188","test",",","image-keyboard-response","354","448389","0.0-4.0-1.85","true"
"5034","ImagesSoccer/VR97.5.png","188","test",",","image-keyboard-response","356","453925","0.0-4.0-1.86","true"
"6762","ImagesDirect/VR95.png","188","test",",","image-keyboard-response","358","461189","0.0-4.0-1.87","true"
"921","ImagesTennis/TL90.png","190","test",".","image-keyboard-response","360","462613","0.0-4.0-1.88","true"
"4729","ImagesSoccer/VL95.png","190","test",".","image-keyboard-response","362","467844","0.0-4.0-1.89","true"
"1529","ImagesTennis/TR90.png","188","test",",","image-keyboard-response","364","469876","0.0-4.0-1.90","true"
"1016","ImagesTennis/TR92.5.png","188","test",",","image-keyboard-response","366","471396","0.0-4.0-1.91","true"
"3489","ImagesSoccer/VL92.5.png","190","test",".","image-keyboard-response","368","475388","0.0-4.0-1.92","true"
"1825","ImagesDirect/VR100.png","190","test",".","image-keyboard-response","370","477716","0.0-4.0-1.93","true"
"2041","ImagesTennis/TR107.5.png","190","test",".","image-keyboard-response","372","480261","0.0-4.0-1.94","true"
"873","ImagesSoccer/VR105.png","190","test",".","image-keyboard-response","374","481636","0.0-4.0-1.95","true"
"1177","ImagesSoccer/VR107.5.png","190","test",".","image-keyboard-response","376","483316","0.0-4.0-1.96","true"
"4689","ImagesSoccer/VL97.5.png","190","test",".","image-keyboard-response","378","488508","0.0-4.0-1.97","true"
"1226","ImagesTennis/TL110.png","188","test",",","image-keyboard-response","380","490236","0.0-4.0-1.98","true"
"2625","ImagesTennis/TL92.5.png","190","test",".","image-keyboard-response","382","493364","0.0-4.0-1.99","true"
"4766","ImagesTennis/TR100.png","190","test",".","image-keyboard-response","384","498636","0.0-4.0-1.100","true"
"1217","ImagesDirect/VL90.png","190","test",".","image-keyboard-response","386","500356","0.0-4.0-1.101","true"
"1033","ImagesSoccer/VL105.png","188","test",",","image-keyboard-response","388","501891","0.0-4.0-1.102","true"
"1505","ImagesDirect/VL97.5.png","188","test",".","image-keyboard-response","390","503900","0.0-4.0-1.103","false"
"4436","ImagesDirect/VR92.5.png","188","test",",","image-keyboard-response","392","508839","0.0-4.0-1.104","true"
"1468","ImagesSoccer/VR110.png","190","test",".","image-keyboard-response","394","510835","0.0-4.0-1.105","true"
"4866","ImagesTennis/TR110.png","190","test",".","image-keyboard-response","396","516204","0.0-4.0-1.106","true"
"905","ImagesDirect/VL110.png","188","test",",","image-keyboard-response","398","517611","0.0-4.0-1.107","true"
"1338","ImagesSoccer/VL97.5.png","188","test",".","image-keyboard-response","400","519451","0.0-4.0-1.108","false"
"1433","ImagesSoccer/VR97.5.png","188","test",",","image-keyboard-response","402","521388","0.0-4.0-1.109","true"
"1052","ImagesTennis/TL95.png","190","test",".","image-keyboard-response","404","522942","0.0-4.0-1.110","true"
"963","ImagesTennis/TR95.png","188","test",",","image-keyboard-response","406","524413","0.0-4.0-1.111","true"
"843","ImagesSoccer/VR105.png","190","test",".","image-keyboard-response","408","525763","0.0-4.0-1.112","true"
"1096","ImagesDirect/VL92.5.png","188","test",".","image-keyboard-response","410","527363","0.0-4.0-1.113","false"
"1320","ImagesTennis/TL100.png","190","test",".","image-keyboard-response","412","529187","0.0-4.0-1.114","true"
"1315","ImagesSoccer/VL100.png","188","test",".","image-keyboard-response","414","531011","0.0-4.0-1.115","false"
"837","ImagesDirect/VR105.png","190","test",".","image-keyboard-response","416","532355","0.0-4.0-1.116","true"
"929","ImagesDirect/VL90.png","188","test",".","image-keyboard-response","418","533789","0.0-4.0-1.117","false"
"922","ImagesDirect/VR107.5.png","190","test",".","image-keyboard-response","420","535219","0.0-4.0-1.118","true"
"846","ImagesTennis/TR90.png","188","test",",","image-keyboard-response","422","536571","0.0-4.0-1.119","true"
"1688","ImagesDirect/VR95.png","190","test",",","image-keyboard-response","424","538763","0.0-4.0-1.120","false"
"3616","ImagesTennis/TR105.png","188","test",".","image-keyboard-response","426","542883","0.0-4.0-1.121","false"
"1801","ImagesDirect/VL97.5.png","188","test",".","image-keyboard-response","428","545188","0.0-4.0-1.122","false"
"1583","ImagesDirect/VR97.5.png","190","test",",","image-keyboard-response","430","547275","0.0-4.0-1.123","false"
"1825","ImagesDirect/VR100.png","190","test",".","image-keyboard-response","432","549603","0.0-4.0-1.124","true"
"4384","ImagesTennis/TL107.5.png","188","test",",","image-keyboard-response","434","554492","0.0-4.0-1.125","true"
"1264","ImagesTennis/TL92.5.png","190","test",".","image-keyboard-response","436","556259","0.0-4.0-1.126","true"
"1228","ImagesTennis/TL97.5.png","190","test",".","image-keyboard-response","438","558012","0.0-4.0-1.127","true"
"2008","ImagesTennis/TR110.png","190","test",".","image-keyboard-response","440","560524","0.0-4.0-1.128","true"
"4312","ImagesSoccer/VL92.5.png","190","test",".","image-keyboard-response","442","565340","0.0-4.0-1.129","true"
"985","ImagesDirect/VL102.5.png","188","test",",","image-keyboard-response","444","566829","0.0-4.0-1.130","true"
"889","ImagesDirect/VR102.5.png","190","test",".","image-keyboard-response","446","568221","0.0-4.0-1.131","true"
"1408","ImagesSoccer/VR110.png","190","test",".","image-keyboard-response","448","570132","0.0-4.0-1.132","true"
"1137","ImagesTennis/TR92.5.png","188","test",",","image-keyboard-response","450","571772","0.0-4.0-1.133","true"
"1529","ImagesSoccer/VR92.5.png","188","test",",","image-keyboard-response","452","573805","0.0-4.0-1.134","true"
"2953","ImagesTennis/TR100.png","188","test",".","image-keyboard-response","454","577260","0.0-4.0-1.135","false"
"2321","ImagesTennis/TR102.5.png","190","test",".","image-keyboard-response","456","580085","0.0-4.0-1.136","true"
"3064","ImagesDirect/VR92.5.png","188","test",",","image-keyboard-response","458","583653","0.0-4.0-1.137","true"
"2706","ImagesTennis/TR107.5.png","190","test",".","image-keyboard-response","460","586861","0.0-4.0-1.138","true"
"921","ImagesDirect/VL110.png","188","test",",","image-keyboard-response","462","588285","0.0-4.0-1.139","true"
"938","ImagesSoccer/VR102.5.png","190","test",".","image-keyboard-response","464","589727","0.0-4.0-1.140","true"
"1435","ImagesSoccer/VR107.5.png","190","test",".","image-keyboard-response","466","591674","0.0-4.0-1.141","true"
"856","ImagesSoccer/VL105.png","188","test",",","image-keyboard-response","468","593037","0.0-4.0-1.142","true"
"1615","ImagesDirect/VL95.png","188","test",".","image-keyboard-response","470","595158","0.0-4.0-1.143","false"
"1231","ImagesTennis/TL90.png","190","test",".","image-keyboard-response","472","596893","0.0-4.0-1.144","true"
"2026","ImagesTennis/TR97.5.png","188","test",",","image-keyboard-response","474","599423","0.0-4.0-1.145","true"
"3758","ImagesDirect/VR90.png","188","test",",","image-keyboard-response","476","603685","0.0-4.0-1.146","true"
"3111","ImagesTennis/TL102.5.png","190","test",",","image-keyboard-response","478","607302","0.0-4.0-1.147","false"
"959","ImagesDirect/VL107.5.png","188","test",",","image-keyboard-response","480","608766","0.0-4.0-1.148","true"
"1473","ImagesSoccer/VL95.png","188","test",".","image-keyboard-response","482","610743","0.0-4.0-1.149","false"
"1192","ImagesTennis/TL110.png","188","test",",","image-keyboard-response","484","612438","0.0-4.0-1.150","true"
"991","ImagesDirect/VL105.png","188","test",",","image-keyboard-response","486","613934","0.0-4.0-1.151","true"
"969","ImagesDirect/VR110.png","190","test",".","image-keyboard-response","488","615406","0.0-4.0-1.152","true"
"889","ImagesSoccer/VL107.5.png","188","test",",","image-keyboard-response","490","616799","0.0-4.0-1.153","true"
"2281","ImagesTennis/TL105.png","190","test",",","image-keyboard-response","492","619583","0.0-4.0-1.154","false"
"897","ImagesSoccer/VL110.png","188","test",",","image-keyboard-response","494","620982","0.0-4.0-1.155","true"
"2521","ImagesSoccer/VL102.5.png","188","test",",","image-keyboard-response","496","624006","0.0-4.0-1.156","true"
"937","ImagesSoccer/VR100.png","190","test",".","image-keyboard-response","498","625446","0.0-4.0-1.157","true"
"1161","ImagesSoccer/VL90.png","188","test",".","image-keyboard-response","500","627110","0.0-4.0-1.158","false"
"1457","ImagesSoccer/VR90.png","188","test",",","image-keyboard-response","502","629070","0.0-4.0-1.159","true"
"1033","ImagesDirect/VL100.png","188","test",".","image-keyboard-response","504","630606","0.0-4.0-1.160","false"
"1872","ImagesSoccer/VR95.png","188","test",",","image-keyboard-response","506","632982","0.0-4.0-1.161","true"
"880","ImagesDirect/VR105.png","190","test",".","image-keyboard-response","508","634367","0.0-4.0-1.162","true"
"3039","ImagesTennis/TR100.png","188","test",".","image-keyboard-response","510","637911","0.0-4.0-1.163","false"
"1649","ImagesDirect/VL102.5.png","188","test",",","image-keyboard-response","512","640063","0.0-4.0-1.164","true"
"1585","ImagesDirect/VL97.5.png","188","test",".","image-keyboard-response","514","642151","0.0-4.0-1.165","false"
"6215","ImagesTennis/TR105.png","190","test",".","image-keyboard-response","516","648871","0.0-4.0-1.166","true"
"865","ImagesDirect/VR110.png","190","test",".","image-keyboard-response","518","650239","0.0-4.0-1.167","true"
"1840","ImagesDirect/VL105.png","188","test",",","image-keyboard-response","520","652583","0.0-4.0-1.168","true"
"1217","ImagesSoccer/VR95.png","188","test",",","image-keyboard-response","522","654304","0.0-4.0-1.169","true"
"1441","ImagesDirect/VL90.png","190","test",".","image-keyboard-response","524","656248","0.0-4.0-1.170","true"
"881","ImagesDirect/VR102.5.png","190","test",".","image-keyboard-response","526","657631","0.0-4.0-1.171","true"
"1040","ImagesSoccer/VL97.5.png","188","test",".","image-keyboard-response","528","659175","0.0-4.0-1.172","false"
"1025","ImagesSoccer/VL105.png","188","test",",","image-keyboard-response","530","660704","0.0-4.0-1.173","true"
"1567","ImagesDirect/VL92.5.png","188","test",".","image-keyboard-response","532","662775","0.0-4.0-1.174","false"
"1264","ImagesSoccer/VR110.png","190","test",".","image-keyboard-response","534","664544","0.0-4.0-1.175","true"
"1056","ImagesTennis/TL110.png","188","test",",","image-keyboard-response","536","666104","0.0-4.0-1.176","true"
"3882","ImagesTennis/TL102.5.png","190","test",",","image-keyboard-response","538","670488","0.0-4.0-1.177","false"
"2906","ImagesSoccer/VR100.png","190","test",".","image-keyboard-response","540","673896","0.0-4.0-1.178","true"
"2048","ImagesSoccer/VR97.5.png","190","test",",","image-keyboard-response","542","676448","0.0-4.0-1.179","false"
"1025","ImagesDirect/VR97.5.png","190","test",",","image-keyboard-response","544","677975","0.0-4.0-1.180","false"
"1018","ImagesSoccer/VL102.5.png","188","test",",","image-keyboard-response","546","679496","0.0-4.0-1.181","true"
"1113","ImagesTennis/TL95.png","190","test",".","image-keyboard-response","548","681113","0.0-4.0-1.182","true"
"1000","ImagesSoccer/VR105.png","190","test",".","image-keyboard-response","550","682616","0.0-4.0-1.183","true"
"4017","ImagesTennis/TR102.5.png","190","test",".","image-keyboard-response","552","687136","0.0-4.0-1.184","true"
"968","ImagesSoccer/VL110.png","188","test",",","image-keyboard-response","554","688608","0.0-4.0-1.185","true"
"1954","ImagesDirect/VL95.png","188","test",".","image-keyboard-response","556","691064","0.0-4.0-1.186","false"
"1401","ImagesDirect/VR95.png","188","test",",","image-keyboard-response","558","692968","0.0-4.0-1.187","true"
"4769","ImagesTennis/TR107.5.png","188","test",".","image-keyboard-response","560","698240","0.0-4.0-1.188","false"
"976","ImagesDirect/VR100.png","190","test",".","image-keyboard-response","562","699721","0.0-4.0-1.189","true"
"3535","ImagesSoccer/VL95.png","188","test",".","image-keyboard-response","564","703761","0.0-4.0-1.190","false"
"2354","ImagesSoccer/VR102.5.png","190","test",".","image-keyboard-response","566","706617","0.0-4.0-1.191","true"
"1369","ImagesDirect/VR92.5.png","188","test",",","image-keyboard-response","568","708488","0.0-4.0-1.192","true"
"1353","ImagesTennis/TL90.png","190","test",".","image-keyboard-response","570","710345","0.0-4.0-1.193","true"
"1792","ImagesSoccer/VR90.png","188","test",",","image-keyboard-response","572","712641","0.0-4.0-1.194","true"
"1010","ImagesTennis/TR110.png","190","test",".","image-keyboard-response","574","714153","0.0-4.0-1.195","true"
"1265","ImagesDirect/VL100.png","188","test",".","image-keyboard-response","576","715921","0.0-4.0-1.196","false"
"5689","ImagesTennis/TL107.5.png","188","test",",","image-keyboard-response","578","722113","0.0-4.0-1.197","true"
"1817","ImagesSoccer/VL100.png","188","test",".","image-keyboard-response","580","724433","0.0-4.0-1.198","false"
"1177","ImagesTennis/TR90.png","188","test",",","image-keyboard-response","582","726113","0.0-4.0-1.199","true"
"1625","ImagesTennis/TL97.5.png","190","test",".","image-keyboard-response","584","728241","0.0-4.0-1.200","true"
"938","ImagesDirect/VR107.5.png","190","test",".","image-keyboard-response","586","729681","0.0-4.0-1.201","true"
"938","ImagesDirect/VL110.png","188","test",",","image-keyboard-response","588","731121","0.0-4.0-1.202","true"
"928","ImagesTennis/TR95.png","188","test",",","image-keyboard-response","590","732552","0.0-4.0-1.203","true"
"1689","ImagesSoccer/VR92.5.png","188","test",",","image-keyboard-response","592","734745","0.0-4.0-1.204","true"
"1344","ImagesTennis/TL92.5.png","190","test",".","image-keyboard-response","594","736592","0.0-4.0-1.205","true"
"2339","ImagesSoccer/VL90.png","190","test",".","image-keyboard-response","596","739433","0.0-4.0-1.206","true"
"898","ImagesDirect/VL107.5.png","188","test",",","image-keyboard-response","598","740833","0.0-4.0-1.207","true"
"1250","ImagesTennis/TR97.5.png","188","test",",","image-keyboard-response","600","742585","0.0-4.0-1.208","true"
"745","ImagesSoccer/VR107.5.png","190","test",".","image-keyboard-response","602","743833","0.0-4.0-1.209","true"
"1344","ImagesTennis/TL100.png","190","test",".","image-keyboard-response","604","745681","0.0-4.0-1.210","true"
"1121","ImagesTennis/TL105.png","190","test",",","image-keyboard-response","606","747305","0.0-4.0-1.211","false"
"1008","ImagesSoccer/VL92.5.png","190","test",".","image-keyboard-response","608","748817","0.0-4.0-1.212","true"
"1113","ImagesSoccer/VL107.5.png","188","test",",","image-keyboard-response","610","750434","0.0-4.0-1.213","true"
"2466","ImagesDirect/VR90.png","188","test",",","image-keyboard-response","612","753401","0.0-4.0-1.214","true"
"1066","ImagesTennis/TR92.5.png","188","test",",","image-keyboard-response","614","754969","0.0-4.0-1.215","true"
"920","ImagesDirect/VL107.5.png","188","test",",","image-keyboard-response","616","756393","0.0-4.0-1.216","true"
"826","ImagesSoccer/VR110.png","190","test",".","image-keyboard-response","618","757721","0.0-4.0-1.217","true"
"1729","ImagesSoccer/VL92.5.png","188","test",".","image-keyboard-response","620","759953","0.0-4.0-1.218","false"
"2424","ImagesDirect/VR97.5.png","190","test",",","image-keyboard-response","622","762881","0.0-4.0-1.219","false"
"1313","ImagesTennis/TR97.5.png","188","test",",","image-keyboard-response","624","764697","0.0-4.0-1.220","true"
"1905","ImagesTennis/TL102.5.png","190","test",",","image-keyboard-response","626","767105","0.0-4.0-1.221","false"
"1122","ImagesSoccer/VR105.png","190","test",".","image-keyboard-response","628","768729","0.0-4.0-1.222","true"
"1250","ImagesTennis/TL90.png","190","test",".","image-keyboard-response","630","770481","0.0-4.0-1.223","true"
"1369","ImagesTennis/TL107.5.png","188","test",",","image-keyboard-response","632","772353","0.0-4.0-1.224","true"
"857","ImagesDirect/VR100.png","190","test",".","image-keyboard-response","634","773713","0.0-4.0-1.225","true"
"6033","ImagesSoccer/VR97.5.png","190","test",",","image-keyboard-response","636","780249","0.0-4.0-1.226","false"
"832","ImagesTennis/TR107.5.png","190","test",".","image-keyboard-response","638","781585","0.0-4.0-1.227","true"
"1138","ImagesDirect/VL100.png","188","test",".","image-keyboard-response","640","783225","0.0-4.0-1.228","false"
"1201","ImagesTennis/TR92.5.png","188","test",",","image-keyboard-response","642","784929","0.0-4.0-1.229","true"
"1649","ImagesTennis/TL95.png","190","test",".","image-keyboard-response","644","787081","0.0-4.0-1.230","true"
"4047","ImagesDirect/VR95.png","190","test",",","image-keyboard-response","646","791634","0.0-4.0-1.231","false"
"1442","ImagesSoccer/VL107.5.png","188","test",",","image-keyboard-response","648","793578","0.0-4.0-1.232","true"
"4504","ImagesSoccer/VR92.5.png","188","test",",","image-keyboard-response","650","798586","0.0-4.0-1.233","true"
"1625","ImagesDirect/VL97.5.png","188","test",".","image-keyboard-response","652","800714","0.0-4.0-1.234","false"
"1048","ImagesDirect/VR105.png","190","test",".","image-keyboard-response","654","802266","0.0-4.0-1.235","true"
"994","ImagesDirect/VL95.png","188","test",".","image-keyboard-response","656","803762","0.0-4.0-1.236","false"
"873","ImagesDirect/VR110.png","190","test",".","image-keyboard-response","658","805138","0.0-4.0-1.237","true"
"1288","ImagesTennis/TL110.png","188","test",",","image-keyboard-response","660","806929","0.0-4.0-1.238","true"
"1073","ImagesSoccer/VR90.png","188","test",",","image-keyboard-response","662","808506","0.0-4.0-1.239","true"
"1848","ImagesSoccer/VL97.5.png","188","test",".","image-keyboard-response","664","810857","0.0-4.0-1.240","false"
"3849","ImagesDirect/VR92.5.png","188","test",",","image-keyboard-response","666","815210","0.0-4.0-1.241","true"
"2712","ImagesTennis/TL105.png","188","test",",","image-keyboard-response","668","818425","0.0-4.0-1.242","true"
"1273","ImagesTennis/TL100.png","190","test",".","image-keyboard-response","670","820202","0.0-4.0-1.243","true"
"1057","ImagesDirect/VL92.5.png","188","test",".","image-keyboard-response","672","821762","0.0-4.0-1.244","false"
"1258","ImagesTennis/TR100.png","188","test",".","image-keyboard-response","674","823522","0.0-4.0-1.245","false"
"1130","ImagesDirect/VL90.png","188","test",".","image-keyboard-response","676","825154","0.0-4.0-1.246","false"
"825","ImagesDirect/VL110.png","188","test",",","image-keyboard-response","678","826481","0.0-4.0-1.247","true"
"2273","ImagesDirect/VL102.5.png","188","test",",","image-keyboard-response","680","829258","0.0-4.0-1.248","true"
"1081","ImagesTennis/TR110.png","190","test",".","image-keyboard-response","682","830842","0.0-4.0-1.249","true"
"1360","ImagesSoccer/VL90.png","190","test",".","image-keyboard-response","684","832706","0.0-4.0-1.250","true"
"1138","ImagesSoccer/VR102.5.png","190","test",".","image-keyboard-response","686","834345","0.0-4.0-1.251","true"
"1161","ImagesSoccer/VL102.5.png","188","test",",","image-keyboard-response","688","836010","0.0-4.0-1.252","true"
"1153","ImagesSoccer/VR95.png","188","test",",","image-keyboard-response","690","837666","0.0-4.0-1.253","true"
"1209","ImagesDirect/VR107.5.png","190","test",".","image-keyboard-response","692","839378","0.0-4.0-1.254","true"
"5889","ImagesSoccer/VL95.png","190","test",".","image-keyboard-response","694","845770","0.0-4.0-1.255","true"
"2961","ImagesSoccer/VR100.png","188","test",".","image-keyboard-response","696","849234","0.0-4.0-1.256","false"
"1257","ImagesDirect/VR90.png","188","test",",","image-keyboard-response","698","850994","0.0-4.0-1.257","true"
"1457","ImagesTennis/TR90.png","188","test",",","image-keyboard-response","700","852954","0.0-4.0-1.258","true"
"1112","ImagesDirect/VR102.5.png","190","test",".","image-keyboard-response","702","854569","0.0-4.0-1.259","true"
"1128","ImagesTennis/TL92.5.png","190","test",".","image-keyboard-response","704","856201","0.0-4.0-1.260","true"
"3073","ImagesSoccer/VR107.5.png","190","test",".","image-keyboard-response","706","859778","0.0-4.0-1.261","true"
"3231","ImagesTennis/TL97.5.png","190","test",".","image-keyboard-response","708","863514","0.0-4.0-1.262","true"
"1594","ImagesDirect/VL105.png","188","test",",","image-keyboard-response","710","865610","0.0-4.0-1.263","true"
"4784","ImagesTennis/TR102.5.png","188","test",".","image-keyboard-response","712","870897","0.0-4.0-1.264","false"
"888","ImagesSoccer/VL110.png","188","test",",","image-keyboard-response","714","872289","0.0-4.0-1.265","true"
"1945","ImagesTennis/TR105.png","190","test",".","image-keyboard-response","716","874738","0.0-4.0-1.266","true"
"977","ImagesTennis/TR95.png","188","test",",","image-keyboard-response","718","876218","0.0-4.0-1.267","true"
"2202","ImagesSoccer/VL105.png","188","test",",","image-keyboard-response","720","878922","0.0-4.0-1.268","true"
"3120","ImagesSoccer/VL100.png","188","test",".","image-keyboard-response","722","882546","0.0-4.0-1.269","false"
