rt;stimulus;key_press;test_part;correct_response;trial_type;trial_index;time_elapsed;internal_node_id;correct
12718;ImagesDirect/VL102.5.png;188;test;,;image-keyboard-response;4;50061;0.0-3.0-1.0;true
3755;ImagesSoccer/VR102.5.png;190;test;.;image-keyboard-response;6;54334;0.0-3.0-1.1;true
2149;ImagesTennis/TR100.png;190;test;.;image-keyboard-response;8;57005;0.0-3.0-1.2;true
1126;ImagesSoccer/VR100.png;190;test;.;image-keyboard-response;10;58646;0.0-3.0-1.3;true
1263;ImagesSoccer/VL110.png;188;test;,;image-keyboard-response;12;60429;0.0-3.0-1.4;true
2137;ImagesSoccer/VL102.5.png;188;test;,;image-keyboard-response;14;63073;0.0-3.0-1.5;true
1013;ImagesTennis/TL110.png;188;test;,;image-keyboard-response;16;64599;0.0-3.0-1.6;true
764;ImagesSoccer/VR92.5.png;190;test;,;image-keyboard-response;18;65867;0.0-3.0-1.7;false
4280;ImagesTennis/TL92.5.png;190;test;.;image-keyboard-response;20;70654;0.0-3.0-1.8;true
4318;ImagesSoccer/VL95.png;190;test;.;image-keyboard-response;22;75480;0.0-3.0-1.9;true
1105;ImagesSoccer/VL105.png;188;test;,;image-keyboard-response;24;77101;0.0-3.0-1.10;true
940;ImagesDirect/VR105.png;190;test;.;image-keyboard-response;26;78550;0.0-3.0-1.11;true
7339;ImagesTennis/TR92.5.png;188;test;,;image-keyboard-response;28;86403;0.0-3.0-1.12;true
9906;ImagesDirect/VR97.5.png;190;test;,;image-keyboard-response;30;96820;0.0-3.0-1.13;false
4667;ImagesDirect/VL97.5.png;188;test;.;image-keyboard-response;32;102002;0.0-3.0-1.14;false
856;ImagesDirect/VL90.png;190;test;.;image-keyboard-response;34;103377;0.0-3.0-1.15;true
1467;ImagesTennis/TL97.5.png;190;test;.;image-keyboard-response;36;105352;0.0-3.0-1.16;true
789;ImagesDirect/VR110.png;190;test;.;image-keyboard-response;38;106648;0.0-3.0-1.17;true
812;ImagesTennis/TL90.png;190;test;.;image-keyboard-response;40;107969;0.0-3.0-1.18;true
2339;ImagesSoccer/VR95.png;188;test;,;image-keyboard-response;42;110815;0.0-3.0-1.19;true
1014;ImagesTennis/TL95.png;190;test;.;image-keyboard-response;44;112333;0.0-3.0-1.20;true
1286;ImagesSoccer/VL90.png;190;test;.;image-keyboard-response;46;114127;0.0-3.0-1.21;true
3463;ImagesDirect/VL95.png;188;test;.;image-keyboard-response;48;118095;0.0-3.0-1.22;false
1877;ImagesTennis/TR105.png;190;test;.;image-keyboard-response;50;120490;0.0-3.0-1.23;true
2766;ImagesSoccer/VL92.5.png;190;test;.;image-keyboard-response;52;123760;0.0-3.0-1.24;true
4072;ImagesDirect/VR102.5.png;190;test;.;image-keyboard-response;54;128350;0.0-3.0-1.25;true
639;ImagesDirect/VL107.5.png;188;test;,;image-keyboard-response;56;129508;0.0-3.0-1.26;true
5637;ImagesSoccer/VL100.png;188;test;.;image-keyboard-response;58;135651;0.0-3.0-1.27;false
1379;ImagesSoccer/VR105.png;190;test;.;image-keyboard-response;60;137549;0.0-3.0-1.28;true
910;ImagesSoccer/VR90.png;188;test;,;image-keyboard-response;62;138964;0.0-3.0-1.29;true
7843;ImagesTennis/TL102.5.png;190;test;,;image-keyboard-response;64;147318;0.0-3.0-1.30;false
8629;ImagesDirect/VR95.png;188;test;,;image-keyboard-response;66;156459;0.0-3.0-1.31;true
619;ImagesSoccer/VR97.5.png;190;test;,;image-keyboard-response;68;157583;0.0-3.0-1.32;false
763;ImagesTennis/TR102.5.png;190;test;.;image-keyboard-response;70;158868;0.0-3.0-1.33;true
843;ImagesDirect/VR100.png;190;test;.;image-keyboard-response;72;160217;0.0-3.0-1.34;true
642;ImagesDirect/VL100.png;188;test;.;image-keyboard-response;74;161433;0.0-3.0-1.35;false
588;ImagesSoccer/VR107.5.png;190;test;.;image-keyboard-response;76;162536;0.0-3.0-1.36;true
604;ImagesTennis/TR95.png;188;test;,;image-keyboard-response;78;163646;0.0-3.0-1.37;true
559;ImagesDirect/VR90.png;188;test;,;image-keyboard-response;80;164712;0.0-3.0-1.38;true
2055;ImagesDirect/VL105.png;188;test;,;image-keyboard-response;82;167273;0.0-3.0-1.39;true
3917;ImagesSoccer/VL97.5.png;190;test;.;image-keyboard-response;84;171708;0.0-3.0-1.40;true
838;ImagesTennis/TR110.png;190;test;.;image-keyboard-response;86;173064;0.0-3.0-1.41;true
2418;ImagesTennis/TR97.5.png;188;test;,;image-keyboard-response;88;175990;0.0-3.0-1.42;true
629;ImagesSoccer/VR110.png;190;test;.;image-keyboard-response;90;177189;0.0-3.0-1.43;true
5061;ImagesTennis/TL100.png;190;test;.;image-keyboard-response;92;182756;0.0-3.0-1.44;true
743;ImagesDirect/VR92.5.png;188;test;,;image-keyboard-response;94;184011;0.0-3.0-1.45;true
2521;ImagesTennis/TL107.5.png;188;test;,;image-keyboard-response;96;187043;0.0-3.0-1.46;true
648;ImagesDirect/VL110.png;188;test;,;image-keyboard-response;98;188210;0.0-3.0-1.47;true
653;ImagesDirect/VR107.5.png;190;test;.;image-keyboard-response;100;189375;0.0-3.0-1.48;true
2202;ImagesDirect/VL92.5.png;190;test;.;image-keyboard-response;102;192084;0.0-3.0-1.49;true
853;ImagesSoccer/VL107.5.png;188;test;,;image-keyboard-response;104;193447;0.0-3.0-1.50;true
1855;ImagesTennis/TL105.png;188;test;,;image-keyboard-response;106;195811;0.0-3.0-1.51;true
757;ImagesTennis/TR90.png;188;test;,;image-keyboard-response;108;197078;0.0-3.0-1.52;true
571;ImagesTennis/TR107.5.png;190;test;.;image-keyboard-response;110;198164;0.0-3.0-1.53;true
1182;ImagesTennis/TR90.png;188;test;,;image-keyboard-response;112;199853;0.0-3.0-1.54;true
1334;ImagesSoccer/VL92.5.png;190;test;.;image-keyboard-response;114;201699;0.0-3.0-1.55;true
2223;ImagesDirect/VR100.png;190;test;.;image-keyboard-response;116;204438;0.0-3.0-1.56;true
484;ImagesDirect/VL105.png;188;test;,;image-keyboard-response;118;205436;0.0-3.0-1.57;true
508;ImagesTennis/TL95.png;190;test;.;image-keyboard-response;120;206452;0.0-3.0-1.58;true
557;ImagesDirect/VR110.png;190;test;.;image-keyboard-response;122;207523;0.0-3.0-1.59;true
4173;ImagesSoccer/VR95.png;188;test;,;image-keyboard-response;124;212210;0.0-3.0-1.60;true
3360;ImagesSoccer/VR100.png;190;test;.;image-keyboard-response;126;216086;0.0-3.0-1.61;true
2757;ImagesDirect/VR92.5.png;188;test;,;image-keyboard-response;128;219358;0.0-3.0-1.62;true
1515;ImagesDirect/VL102.5.png;188;test;,;image-keyboard-response;130;221387;0.0-3.0-1.63;true
747;ImagesDirect/VL92.5.png;190;test;.;image-keyboard-response;132;222646;0.0-3.0-1.64;true
1801;ImagesDirect/VR97.5.png;188;test;,;image-keyboard-response;134;224962;0.0-3.0-1.65;true
3197;ImagesSoccer/VL97.5.png;190;test;.;image-keyboard-response;136;228677;0.0-3.0-1.66;true
1442;ImagesTennis/TL97.5.png;190;test;.;image-keyboard-response;138;230633;0.0-3.0-1.67;true
860;ImagesSoccer/VR92.5.png;188;test;,;image-keyboard-response;140;232010;0.0-3.0-1.68;true
550;ImagesSoccer/VL107.5.png;188;test;,;image-keyboard-response;142;233077;0.0-3.0-1.69;true
558;ImagesSoccer/VR110.png;190;test;.;image-keyboard-response;144;234153;0.0-3.0-1.70;true
720;ImagesTennis/TR110.png;190;test;.;image-keyboard-response;146;235381;0.0-3.0-1.71;true
4543;ImagesSoccer/VL95.png;190;test;.;image-keyboard-response;148;240441;0.0-3.0-1.72;true
578;ImagesDirect/VR107.5.png;190;test;.;image-keyboard-response;150;241540;0.0-3.0-1.73;true
1302;ImagesDirect/VL95.png;190;test;.;image-keyboard-response;152;243359;0.0-3.0-1.74;true
2550;ImagesSoccer/VR105.png;190;test;.;image-keyboard-response;154;246415;0.0-3.0-1.75;true
3709;ImagesSoccer/VR97.5.png;188;test;,;image-keyboard-response;156;250634;0.0-3.0-1.76;true
1010;ImagesTennis/TR102.5.png;190;test;.;image-keyboard-response;158;252153;0.0-3.0-1.77;true
1031;ImagesTennis/TL90.png;190;test;.;image-keyboard-response;160;253693;0.0-3.0-1.78;true
2982;ImagesDirect/VL97.5.png;188;test;.;image-keyboard-response;162;257192;0.0-3.0-1.79;false
556;ImagesDirect/VL110.png;188;test;,;image-keyboard-response;164;258257;0.0-3.0-1.80;true
559;ImagesTennis/TR105.png;190;test;.;image-keyboard-response;166;259324;0.0-3.0-1.81;true
756;ImagesDirect/VR102.5.png;190;test;.;image-keyboard-response;168;260586;0.0-3.0-1.82;true
1816;ImagesDirect/VR95.png;188;test;,;image-keyboard-response;170;262908;0.0-3.0-1.83;true
1768;ImagesTennis/TL107.5.png;188;test;,;image-keyboard-response;172;265195;0.0-3.0-1.84;true
4702;ImagesDirect/VL100.png;188;test;.;image-keyboard-response;174;270414;0.0-3.0-1.85;false
2722;ImagesTennis/TR97.5.png;188;test;,;image-keyboard-response;176;273652;0.0-3.0-1.86;true
636;ImagesSoccer/VL90.png;190;test;.;image-keyboard-response;178;274808;0.0-3.0-1.87;true
3183;ImagesSoccer/VR102.5.png;188;test;.;image-keyboard-response;180;278500;0.0-3.0-1.88;false
543;ImagesTennis/TR107.5.png;190;test;.;image-keyboard-response;182;279555;0.0-3.0-1.89;true
1067;ImagesDirect/VL90.png;190;test;.;image-keyboard-response;184;281129;0.0-3.0-1.90;true
5302;ImagesTennis/TL102.5.png;188;test;,;image-keyboard-response;186;286949;0.0-3.0-1.91;true
611;ImagesTennis/TL92.5.png;190;test;.;image-keyboard-response;188;288070;0.0-3.0-1.92;true
1111;ImagesTennis/TL100.png;188;test;.;image-keyboard-response;190;289698;0.0-3.0-1.93;false
2816;ImagesSoccer/VL102.5.png;188;test;,;image-keyboard-response;192;293033;0.0-3.0-1.94;true
727;ImagesTennis/TL110.png;188;test;,;image-keyboard-response;194;294279;0.0-3.0-1.95;true
889;ImagesSoccer/VR90.png;188;test;,;image-keyboard-response;196;295682;0.0-3.0-1.96;true
988;ImagesSoccer/VL105.png;188;test;,;image-keyboard-response;198;297177;0.0-3.0-1.97;true
892;ImagesTennis/TL105.png;188;test;,;image-keyboard-response;200;298582;0.0-3.0-1.98;true
677;ImagesDirect/VR90.png;188;test;,;image-keyboard-response;202;299777;0.0-3.0-1.99;true
554;ImagesSoccer/VR107.5.png;190;test;.;image-keyboard-response;204;300846;0.0-3.0-1.100;true
581;ImagesSoccer/VL110.png;188;test;,;image-keyboard-response;206;301935;0.0-3.0-1.101;true
867;ImagesDirect/VR105.png;190;test;.;image-keyboard-response;208;303317;0.0-3.0-1.102;true
700;ImagesDirect/VL107.5.png;188;test;,;image-keyboard-response;210;304534;0.0-3.0-1.103;true
5137;ImagesTennis/TR92.5.png;188;test;,;image-keyboard-response;212;310184;0.0-3.0-1.104;true
1839;ImagesTennis/TR95.png;188;test;,;image-keyboard-response;214;312537;0.0-3.0-1.105;true
427;ImagesSoccer/VL100.png;188;test;.;image-keyboard-response;216;313469;0.0-3.0-1.106;false
1194;ImagesTennis/TR100.png;188;test;.;image-keyboard-response;218;315175;0.0-3.0-1.107;false
1759;ImagesSoccer/VR95.png;188;test;,;image-keyboard-response;220;317446;0.0-3.0-1.108;true
1308;ImagesTennis/TR107.5.png;190;test;.;image-keyboard-response;222;319270;0.0-3.0-1.109;true
579;ImagesSoccer/VL107.5.png;188;test;,;image-keyboard-response;224;320359;0.0-3.0-1.110;true
546;ImagesSoccer/VR102.5.png;190;test;.;image-keyboard-response;226;321420;0.0-3.0-1.111;true
517;ImagesDirect/VR107.5.png;190;test;.;image-keyboard-response;228;322457;0.0-3.0-1.112;true
1717;ImagesDirect/VL95.png;190;test;.;image-keyboard-response;230;324691;0.0-3.0-1.113;true
1479;ImagesTennis/TR105.png;190;test;.;image-keyboard-response;232;326676;0.0-3.0-1.114;true
999;ImagesTennis/TL97.5.png;190;test;.;image-keyboard-response;234;328188;0.0-3.0-1.115;true
723;ImagesTennis/TL90.png;190;test;.;image-keyboard-response;236;329417;0.0-3.0-1.116;true
1884;ImagesDirect/VL107.5.png;188;test;,;image-keyboard-response;238;331815;0.0-3.0-1.117;true
1162;ImagesSoccer/VL110.png;188;test;,;image-keyboard-response;240;333491;0.0-3.0-1.118;true
1445;ImagesTennis/TL105.png;188;test;,;image-keyboard-response;242;335448;0.0-3.0-1.119;true
803;ImagesDirect/VR90.png;188;test;,;image-keyboard-response;244;336764;0.0-3.0-1.120;true
5905;ImagesDirect/VR97.5.png;188;test;,;image-keyboard-response;246;343186;0.0-3.0-1.121;true
3951;ImagesSoccer/VL100.png;190;test;.;image-keyboard-response;248;347656;0.0-3.0-1.122;true
900;ImagesDirect/VL92.5.png;190;test;.;image-keyboard-response;250;349069;0.0-3.0-1.123;true
937;ImagesDirect/VL90.png;190;test;.;image-keyboard-response;252;350513;0.0-3.0-1.124;true
649;ImagesDirect/VL105.png;188;test;,;image-keyboard-response;254;351670;0.0-3.0-1.125;true
718;ImagesDirect/VL100.png;188;test;.;image-keyboard-response;256;352897;0.0-3.0-1.126;false
684;ImagesDirect/VR92.5.png;188;test;,;image-keyboard-response;258;354100;0.0-3.0-1.127;true
1397;ImagesSoccer/VL95.png;190;test;.;image-keyboard-response;260;356003;0.0-3.0-1.128;true
3982;ImagesTennis/TR92.5.png;188;test;,;image-keyboard-response;262;360499;0.0-3.0-1.129;true
681;ImagesSoccer/VR110.png;190;test;.;image-keyboard-response;264;361698;0.0-3.0-1.130;true
997;ImagesSoccer/VR92.5.png;188;test;,;image-keyboard-response;266;363201;0.0-3.0-1.131;true
533;ImagesDirect/VR105.png;190;test;.;image-keyboard-response;268;364240;0.0-3.0-1.132;true
592;ImagesTennis/TL107.5.png;188;test;,;image-keyboard-response;270;365337;0.0-3.0-1.133;true
2124;ImagesSoccer/VL97.5.png;188;test;.;image-keyboard-response;272;367965;0.0-3.0-1.134;false
442;ImagesTennis/TL92.5.png;190;test;.;image-keyboard-response;274;368914;0.0-3.0-1.135;true
505;ImagesDirect/VR102.5.png;190;test;.;image-keyboard-response;276;369929;0.0-3.0-1.136;true
2060;ImagesDirect/VR100.png;190;test;.;image-keyboard-response;278;372506;0.0-3.0-1.137;true
2505;ImagesTennis/TL110.png;188;test;,;image-keyboard-response;280;375523;0.0-3.0-1.138;true
543;ImagesDirect/VR110.png;190;test;.;image-keyboard-response;282;376584;0.0-3.0-1.139;true
615;ImagesTennis/TL100.png;190;test;.;image-keyboard-response;284;377704;0.0-3.0-1.140;true
3388;ImagesTennis/TR102.5.png;190;test;.;image-keyboard-response;286;381603;0.0-3.0-1.141;true
623;ImagesSoccer/VR97.5.png;190;test;,;image-keyboard-response;288;382745;0.0-3.0-1.142;false
504;ImagesSoccer/VR100.png;190;test;.;image-keyboard-response;290;383765;0.0-3.0-1.143;true
573;ImagesSoccer/VR107.5.png;190;test;.;image-keyboard-response;292;384852;0.0-3.0-1.144;true
1027;ImagesSoccer/VL92.5.png;190;test;.;image-keyboard-response;294;386390;0.0-3.0-1.145;true
1562;ImagesSoccer/VL105.png;188;test;,;image-keyboard-response;296;388461;0.0-3.0-1.146;true
538;ImagesSoccer/VR105.png;190;test;.;image-keyboard-response;298;389504;0.0-3.0-1.147;true
1743;ImagesSoccer/VL102.5.png;188;test;,;image-keyboard-response;300;391761;0.0-3.0-1.148;true
4644;ImagesDirect/VL97.5.png;188;test;.;image-keyboard-response;302;396916;0.0-3.0-1.149;false
1746;ImagesTennis/TR97.5.png;190;test;,;image-keyboard-response;304;399174;0.0-3.0-1.150;false
2133;ImagesTennis/TR95.png;188;test;,;image-keyboard-response;306;401815;0.0-3.0-1.151;true
1634;ImagesSoccer/VR90.png;188;test;,;image-keyboard-response;308;403963;0.0-3.0-1.152;true
955;ImagesTennis/TL95.png;190;test;.;image-keyboard-response;310;405431;0.0-3.0-1.153;true
2323;ImagesDirect/VR95.png;188;test;,;image-keyboard-response;312;408272;0.0-3.0-1.154;true
2036;ImagesTennis/TL102.5.png;188;test;,;image-keyboard-response;314;410817;0.0-3.0-1.155;true
548;ImagesTennis/TR110.png;190;test;.;image-keyboard-response;316;411883;0.0-3.0-1.156;true
1722;ImagesTennis/TR100.png;188;test;.;image-keyboard-response;318;414111;0.0-3.0-1.157;false
567;ImagesDirect/VL102.5.png;188;test;,;image-keyboard-response;320;415198;0.0-3.0-1.158;true
601;ImagesTennis/TR90.png;188;test;,;image-keyboard-response;322;416310;0.0-3.0-1.159;true
722;ImagesDirect/VL110.png;188;test;,;image-keyboard-response;324;417546;0.0-3.0-1.160;true
464;ImagesSoccer/VL90.png;190;test;.;image-keyboard-response;326;418523;0.0-3.0-1.161;true
488;ImagesTennis/TR110.png;190;test;.;image-keyboard-response;328;419517;0.0-3.0-1.162;true
530;ImagesTennis/TL100.png;190;test;.;image-keyboard-response;330;420563;0.0-3.0-1.163;true
1511;ImagesTennis/TL95.png;190;test;.;image-keyboard-response;332;422581;0.0-3.0-1.164;true
442;ImagesSoccer/VR110.png;190;test;.;image-keyboard-response;334;423528;0.0-3.0-1.165;true
438;ImagesDirect/VL107.5.png;188;test;,;image-keyboard-response;336;424482;0.0-3.0-1.166;true
443;ImagesDirect/VR107.5.png;190;test;.;image-keyboard-response;338;425441;0.0-3.0-1.167;true
3214;ImagesSoccer/VL100.png;190;test;.;image-keyboard-response;340;429163;0.0-3.0-1.168;true
3556;ImagesSoccer/VR107.5.png;190;test;.;image-keyboard-response;342;433239;0.0-3.0-1.169;true
1145;ImagesDirect/VL102.5.png;188;test;,;image-keyboard-response;344;434891;0.0-3.0-1.170;true
335;ImagesSoccer/VR90.png;190;test;,;image-keyboard-response;346;435740;0.0-3.0-1.171;false
684;ImagesDirect/VL97.5.png;190;test;.;image-keyboard-response;348;436934;0.0-3.0-1.172;true
504;ImagesTennis/TL97.5.png;190;test;.;image-keyboard-response;350;437946;0.0-3.0-1.173;true
475;ImagesTennis/TL90.png;190;test;.;image-keyboard-response;352;438928;0.0-3.0-1.174;true
2340;ImagesTennis/TL105.png;190;test;,;image-keyboard-response;354;441783;0.0-3.0-1.175;false
974;ImagesSoccer/VR95.png;190;test;,;image-keyboard-response;356;443272;0.0-3.0-1.176;false
641;ImagesTennis/TR95.png;188;test;,;image-keyboard-response;358;444424;0.0-3.0-1.177;true
1055;ImagesDirect/VR97.5.png;190;test;,;image-keyboard-response;360;445986;0.0-3.0-1.178;false
2012;ImagesTennis/TL107.5.png;188;test;,;image-keyboard-response;362;448506;0.0-3.0-1.179;true
1129;ImagesDirect/VL105.png;188;test;,;image-keyboard-response;364;450147;0.0-3.0-1.180;true
755;ImagesSoccer/VL110.png;188;test;,;image-keyboard-response;366;451418;0.0-3.0-1.181;true
698;ImagesDirect/VL100.png;190;test;.;image-keyboard-response;368;452628;0.0-3.0-1.182;true
484;ImagesSoccer/VR105.png;190;test;.;image-keyboard-response;370;453623;0.0-3.0-1.183;true
1349;ImagesDirect/VR105.png;190;test;.;image-keyboard-response;372;455492;0.0-3.0-1.184;true
993;ImagesDirect/VL92.5.png;190;test;.;image-keyboard-response;374;456998;0.0-3.0-1.185;true
2099;ImagesSoccer/VL95.png;188;test;.;image-keyboard-response;376;459603;0.0-3.0-1.186;false
3097;ImagesTennis/TR97.5.png;188;test;,;image-keyboard-response;378;463208;0.0-3.0-1.187;true
516;ImagesTennis/TR90.png;188;test;,;image-keyboard-response;380;464245;0.0-3.0-1.188;true
1634;ImagesDirect/VR92.5.png;188;test;,;image-keyboard-response;382;466396;0.0-3.0-1.189;true
643;ImagesTennis/TR105.png;190;test;.;image-keyboard-response;384;467551;0.0-3.0-1.190;true
1003;ImagesTennis/TR102.5.png;190;test;.;image-keyboard-response;386;469071;0.0-3.0-1.191;true
587;ImagesDirect/VR90.png;188;test;,;image-keyboard-response;388;470161;0.0-3.0-1.192;true
563;ImagesSoccer/VL97.5.png;190;test;.;image-keyboard-response;390;471233;0.0-3.0-1.193;true
540;ImagesSoccer/VL102.5.png;188;test;,;image-keyboard-response;392;472278;0.0-3.0-1.194;true
1076;ImagesSoccer/VR92.5.png;188;test;,;image-keyboard-response;394;473861;0.0-3.0-1.195;true
642;ImagesSoccer/VR100.png;190;test;.;image-keyboard-response;396;475008;0.0-3.0-1.196;true
981;ImagesSoccer/VL92.5.png;188;test;.;image-keyboard-response;398;476497;0.0-3.0-1.197;false
484;ImagesTennis/TL110.png;188;test;,;image-keyboard-response;400;477486;0.0-3.0-1.198;true
1342;ImagesDirect/VR100.png;188;test;.;image-keyboard-response;402;479345;0.0-3.0-1.199;false
537;ImagesTennis/TL92.5.png;190;test;.;image-keyboard-response;404;480386;0.0-3.0-1.200;true
941;ImagesSoccer/VR102.5.png;190;test;.;image-keyboard-response;406;481843;0.0-3.0-1.201;true
5572;ImagesTennis/TL102.5.png;188;test;,;image-keyboard-response;408;487927;0.0-3.0-1.202;true
475;ImagesDirect/VR110.png;190;test;.;image-keyboard-response;410;488916;0.0-3.0-1.203;true
530;ImagesDirect/VL110.png;188;test;,;image-keyboard-response;412;489960;0.0-3.0-1.204;true
629;ImagesDirect/VL95.png;190;test;.;image-keyboard-response;414;491095;0.0-3.0-1.205;true
489;ImagesDirect/VL90.png;190;test;.;image-keyboard-response;416;492099;0.0-3.0-1.206;true
7346;ImagesTennis/TR100.png;190;test;.;image-keyboard-response;418;499958;0.0-3.0-1.207;true
925;ImagesDirect/VR95.png;190;test;,;image-keyboard-response;420;501391;0.0-3.0-1.208;false
1771;ImagesSoccer/VR97.5.png;188;test;,;image-keyboard-response;422;503672;0.0-3.0-1.209;true
578;ImagesTennis/TR92.5.png;188;test;,;image-keyboard-response;424;504755;0.0-3.0-1.210;true
920;ImagesSoccer/VL105.png;188;test;,;image-keyboard-response;426;506192;0.0-3.0-1.211;true
586;ImagesDirect/VR102.5.png;190;test;.;image-keyboard-response;428;507283;0.0-3.0-1.212;true
1174;ImagesTennis/TR107.5.png;190;test;.;image-keyboard-response;430;508969;0.0-3.0-1.213;true
477;ImagesSoccer/VL107.5.png;188;test;,;image-keyboard-response;432;509952;0.0-3.0-1.214;true
1625;ImagesSoccer/VL90.png;190;test;.;image-keyboard-response;434;512093;0.0-3.0-1.215;true
4806;ImagesTennis/TR105.png;190;test;.;image-keyboard-response;436;517411;0.0-3.0-1.216;true
689;ImagesTennis/TL95.png;190;test;.;image-keyboard-response;438;518608;0.0-3.0-1.217;true
4479;ImagesTennis/TL105.png;190;test;,;image-keyboard-response;440;523601;0.0-3.0-1.218;false
525;ImagesTennis/TR110.png;190;test;.;image-keyboard-response;442;524645;0.0-3.0-1.219;true
1054;ImagesDirect/VL105.png;188;test;,;image-keyboard-response;444;526208;0.0-3.0-1.220;true
702;ImagesDirect/VL102.5.png;188;test;,;image-keyboard-response;446;527425;0.0-3.0-1.221;true
2475;ImagesSoccer/VL100.png;188;test;.;image-keyboard-response;448;530415;0.0-3.0-1.222;false
2530;ImagesTennis/TR97.5.png;188;test;,;image-keyboard-response;450;533463;0.0-3.0-1.223;true
2611;ImagesSoccer/VR97.5.png;188;test;,;image-keyboard-response;452;536591;0.0-3.0-1.224;true
625;ImagesDirect/VL107.5.png;188;test;,;image-keyboard-response;454;537722;0.0-3.0-1.225;true
879;ImagesDirect/VR102.5.png;190;test;.;image-keyboard-response;456;539116;0.0-3.0-1.226;true
836;ImagesSoccer/VR92.5.png;188;test;,;image-keyboard-response;458;540466;0.0-3.0-1.227;true
1745;ImagesDirect/VR100.png;190;test;.;image-keyboard-response;460;542725;0.0-3.0-1.228;true
539;ImagesTennis/TR90.png;188;test;,;image-keyboard-response;462;543775;0.0-3.0-1.229;true
680;ImagesSoccer/VL95.png;190;test;.;image-keyboard-response;464;544965;0.0-3.0-1.230;true
561;ImagesSoccer/VR95.png;188;test;,;image-keyboard-response;466;546037;0.0-3.0-1.231;true
2613;ImagesSoccer/VR100.png;190;test;.;image-keyboard-response;468;549158;0.0-3.0-1.232;true
586;ImagesSoccer/VR105.png;190;test;.;image-keyboard-response;470;550249;0.0-3.0-1.233;true
490;ImagesSoccer/VL105.png;188;test;,;image-keyboard-response;472;551250;0.0-3.0-1.234;true
2687;ImagesDirect/VL95.png;190;test;.;image-keyboard-response;474;554451;0.0-3.0-1.235;true
587;ImagesDirect/VR105.png;190;test;.;image-keyboard-response;476;555550;0.0-3.0-1.236;true
2892;ImagesDirect/VR97.5.png;188;test;,;image-keyboard-response;478;558951;0.0-3.0-1.237;true
3411;ImagesTennis/TL107.5.png;190;test;,;image-keyboard-response;480;562871;0.0-3.0-1.238;false
2181;ImagesDirect/VR92.5.png;188;test;,;image-keyboard-response;482;565559;0.0-3.0-1.239;true
609;ImagesSoccer/VR90.png;188;test;,;image-keyboard-response;484;566676;0.0-3.0-1.240;true
591;ImagesSoccer/VL107.5.png;188;test;,;image-keyboard-response;486;567774;0.0-3.0-1.241;true
591;ImagesSoccer/VR110.png;190;test;.;image-keyboard-response;488;568872;0.0-3.0-1.242;true
734;ImagesDirect/VR110.png;190;test;.;image-keyboard-response;490;570112;0.0-3.0-1.243;true
2828;ImagesSoccer/VL90.png;190;test;.;image-keyboard-response;492;573459;0.0-3.0-1.244;true
1566;ImagesDirect/VR107.5.png;190;test;.;image-keyboard-response;494;575537;0.0-3.0-1.245;true
571;ImagesTennis/TL90.png;190;test;.;image-keyboard-response;496;576622;0.0-3.0-1.246;true
1073;ImagesTennis/TR102.5.png;188;test;.;image-keyboard-response;498;578204;0.0-3.0-1.247;false
1067;ImagesDirect/VL110.png;188;test;,;image-keyboard-response;500;579783;0.0-3.0-1.248;true
506;ImagesDirect/VL100.png;188;test;.;image-keyboard-response;502;580803;0.0-3.0-1.249;false
1487;ImagesTennis/TR95.png;188;test;,;image-keyboard-response;504;582805;0.0-3.0-1.250;true
773;ImagesTennis/TR107.5.png;190;test;.;image-keyboard-response;506;584095;0.0-3.0-1.251;true
1388;ImagesTennis/TL100.png;188;test;.;image-keyboard-response;508;585993;0.0-3.0-1.252;false
577;ImagesSoccer/VL92.5.png;190;test;.;image-keyboard-response;510;587076;0.0-3.0-1.253;true
671;ImagesSoccer/VL97.5.png;188;test;.;image-keyboard-response;512;588255;0.0-3.0-1.254;false
602;ImagesTennis/TR100.png;188;test;.;image-keyboard-response;514;589375;0.0-3.0-1.255;false
1758;ImagesTennis/TL92.5.png;190;test;.;image-keyboard-response;516;591641;0.0-3.0-1.256;true
604;ImagesTennis/TL110.png;188;test;,;image-keyboard-response;518;592751;0.0-3.0-1.257;true
2761;ImagesDirect/VL90.png;190;test;.;image-keyboard-response;520;596031;0.0-3.0-1.258;true
806;ImagesSoccer/VR107.5.png;190;test;.;image-keyboard-response;522;597351;0.0-3.0-1.259;true
1544;ImagesSoccer/VL102.5.png;188;test;,;image-keyboard-response;524;599406;0.0-3.0-1.260;true
1714;ImagesTennis/TR92.5.png;188;test;,;image-keyboard-response;526;601627;0.0-3.0-1.261;true
2256;ImagesTennis/TL102.5.png;188;test;,;image-keyboard-response;528;604393;0.0-3.0-1.262;true
1852;ImagesDirect/VR95.png;188;test;,;image-keyboard-response;530;606771;0.0-3.0-1.263;true
3592;ImagesTennis/TL97.5.png;188;test;.;image-keyboard-response;532;610869;0.0-3.0-1.264;false
1298;ImagesSoccer/VR102.5.png;190;test;.;image-keyboard-response;534;612676;0.0-3.0-1.265;true
845;ImagesDirect/VR90.png;188;test;,;image-keyboard-response;536;614085;0.0-3.0-1.266;true
1057;ImagesDirect/VL92.5.png;190;test;.;image-keyboard-response;538;615648;0.0-3.0-1.267;true
771;ImagesDirect/VL97.5.png;188;test;.;image-keyboard-response;540;616936;0.0-3.0-1.268;false
1981;ImagesSoccer/VL110.png;188;test;,;image-keyboard-response;542;619423;0.0-3.0-1.269;true
7525;ImagesCoins/10L90.png;190;test;.;image-keyboard-response;544;627461;0.0-4.0-1.0;true
2383;ImagesCoins/10R90.png;188;test;,;image-keyboard-response;546;630360;0.0-4.0-1.1;true
8637;ImagesCoins/10L97.5.png;190;test;.;image-keyboard-response;548;639506;0.0-4.0-1.2;true
1744;ImagesCoins/10R97.5.png;188;test;,;image-keyboard-response;550;641766;0.0-4.0-1.3;true
2587;ImagesCoins/10R100.png;188;test;.;image-keyboard-response;552;644867;0.0-4.0-1.4;false
998;ImagesCoins/10R92.5.png;188;test;,;image-keyboard-response;554;646380;0.0-4.0-1.5;true
2370;ImagesCoins/10R102.5.png;190;test;.;image-keyboard-response;556;649253;0.0-4.0-1.6;true
1472;ImagesCoins/10R107.5.png;190;test;.;image-keyboard-response;558;651239;0.0-4.0-1.7;true
1128;ImagesCoins/10L107.5.png;188;test;,;image-keyboard-response;560;652886;0.0-4.0-1.8;true
876;ImagesCoins/10R95.png;188;test;,;image-keyboard-response;562;654278;0.0-4.0-1.9;true
1963;ImagesCoins/10L102.5.png;188;test;,;image-keyboard-response;564;656759;0.0-4.0-1.10;true
1322;ImagesCoins/10L105.png;188;test;,;image-keyboard-response;566;658595;0.0-4.0-1.11;true
849;ImagesCoins/10R105.png;190;test;.;image-keyboard-response;568;659955;0.0-4.0-1.12;true
1657;ImagesCoins/10R110.png;190;test;.;image-keyboard-response;570;662126;0.0-4.0-1.13;true
917;ImagesCoins/10L110.png;188;test;,;image-keyboard-response;572;663549;0.0-4.0-1.14;true
700;ImagesCoins/10L100.png;188;test;.;image-keyboard-response;574;664755;0.0-4.0-1.15;false
690;ImagesCoins/10L92.5.png;190;test;.;image-keyboard-response;576;665956;0.0-4.0-1.16;true
1217;ImagesCoins/10L95.png;190;test;.;image-keyboard-response;578;667685;0.0-4.0-1.17;true
1032;ImagesCoins/10R107.5.png;190;test;.;image-keyboard-response;580;669222;0.0-4.0-1.18;true
1725;ImagesCoins/10R102.5.png;190;test;.;image-keyboard-response;582;671454;0.0-4.0-1.19;true
5494;ImagesCoins/10L100.png;188;test;.;image-keyboard-response;584;677464;0.0-4.0-1.20;false
1124;ImagesCoins/10L102.5.png;188;test;,;image-keyboard-response;586;679099;0.0-4.0-1.21;true
1165;ImagesCoins/10L97.5.png;190;test;.;image-keyboard-response;588;680771;0.0-4.0-1.22;true
701;ImagesCoins/10R90.png;188;test;,;image-keyboard-response;590;681980;0.0-4.0-1.23;true
2538;ImagesCoins/10R97.5.png;190;test;,;image-keyboard-response;592;685025;0.0-4.0-1.24;false
694;ImagesCoins/10L105.png;188;test;,;image-keyboard-response;594;686233;0.0-4.0-1.25;true
619;ImagesCoins/10L90.png;190;test;.;image-keyboard-response;596;687365;0.0-4.0-1.26;true
701;ImagesCoins/10L95.png;190;test;.;image-keyboard-response;598;688576;0.0-4.0-1.27;true
728;ImagesCoins/10L92.5.png;190;test;.;image-keyboard-response;600;689823;0.0-4.0-1.28;true
1491;ImagesCoins/10L107.5.png;188;test;,;image-keyboard-response;602;691826;0.0-4.0-1.29;true
527;ImagesCoins/10R92.5.png;188;test;,;image-keyboard-response;604;692858;0.0-4.0-1.30;true
610;ImagesCoins/10R110.png;190;test;.;image-keyboard-response;606;693976;0.0-4.0-1.31;true
529;ImagesCoins/10L110.png;188;test;,;image-keyboard-response;608;695014;0.0-4.0-1.32;true
2065;ImagesCoins/10R100.png;190;test;.;image-keyboard-response;610;697586;0.0-4.0-1.33;true
1471;ImagesCoins/10R95.png;188;test;,;image-keyboard-response;612;699575;0.0-4.0-1.34;true
792;ImagesCoins/10R105.png;190;test;.;image-keyboard-response;614;700889;0.0-4.0-1.35;true
693;ImagesCoins/10L90.png;190;test;.;image-keyboard-response;616;702089;0.0-4.0-1.36;true
639;ImagesCoins/10L92.5.png;190;test;.;image-keyboard-response;618;703238;0.0-4.0-1.37;true
818;ImagesCoins/10L100.png;188;test;.;image-keyboard-response;620;704563;0.0-4.0-1.38;false
458;ImagesCoins/10R107.5.png;190;test;.;image-keyboard-response;622;705527;0.0-4.0-1.39;true
924;ImagesCoins/10R102.5.png;190;test;.;image-keyboard-response;624;706970;0.0-4.0-1.40;true
1573;ImagesCoins/10L102.5.png;188;test;,;image-keyboard-response;626;709061;0.0-4.0-1.41;true
529;ImagesCoins/10L110.png;188;test;,;image-keyboard-response;628;710108;0.0-4.0-1.42;true
1181;ImagesCoins/10R97.5.png;188;test;,;image-keyboard-response;630;711805;0.0-4.0-1.43;true
1897;ImagesCoins/10R92.5.png;188;test;,;image-keyboard-response;632;714217;0.0-4.0-1.44;true
2024;ImagesCoins/10L97.5.png;190;test;.;image-keyboard-response;634;716759;0.0-4.0-1.45;true
2040;ImagesCoins/10R95.png;188;test;,;image-keyboard-response;636;719305;0.0-4.0-1.46;true
987;ImagesCoins/10L105.png;188;test;,;image-keyboard-response;638;720806;0.0-4.0-1.47;true
452;ImagesCoins/10L107.5.png;188;test;,;image-keyboard-response;640;721777;0.0-4.0-1.48;true
419;ImagesCoins/10R100.png;190;test;.;image-keyboard-response;642;722715;0.0-4.0-1.49;true
559;ImagesCoins/10R110.png;190;test;.;image-keyboard-response;644;723793;0.0-4.0-1.50;true
760;ImagesCoins/10R105.png;190;test;.;image-keyboard-response;646;725062;0.0-4.0-1.51;true
906;ImagesCoins/10R90.png;190;test;,;image-keyboard-response;648;726476;0.0-4.0-1.52;false
675;ImagesCoins/10L95.png;190;test;.;image-keyboard-response;650;727668;0.0-4.0-1.53;true
442;ImagesCoins/10L110.png;188;test;,;image-keyboard-response;652;728628;0.0-4.0-1.54;true
685;ImagesCoins/10L92.5.png;190;test;.;image-keyboard-response;654;729825;0.0-4.0-1.55;true
3211;ImagesCoins/10R92.5.png;188;test;,;image-keyboard-response;656;733544;0.0-4.0-1.56;true
915;ImagesCoins/10L97.5.png;190;test;.;image-keyboard-response;658;734969;0.0-4.0-1.57;true
2416;ImagesCoins/10R102.5.png;190;test;.;image-keyboard-response;660;737894;0.0-4.0-1.58;true
592;ImagesCoins/10R110.png;190;test;.;image-keyboard-response;662;738993;0.0-4.0-1.59;true
535;ImagesCoins/10L105.png;188;test;,;image-keyboard-response;664;740036;0.0-4.0-1.60;true
1352;ImagesCoins/10R97.5.png;188;test;,;image-keyboard-response;666;741896;0.0-4.0-1.61;true
1159;ImagesCoins/10R90.png;188;test;,;image-keyboard-response;668;743574;0.0-4.0-1.62;true
671;ImagesCoins/10R105.png;190;test;.;image-keyboard-response;670;744765;0.0-4.0-1.63;true
1299;ImagesCoins/10L90.png;190;test;.;image-keyboard-response;672;746570;0.0-4.0-1.64;true
1513;ImagesCoins/10R95.png;188;test;,;image-keyboard-response;674;748600;0.0-4.0-1.65;true
557;ImagesCoins/10L107.5.png;188;test;,;image-keyboard-response;676;749664;0.0-4.0-1.66;true
549;ImagesCoins/10L100.png;190;test;.;image-keyboard-response;678;750725;0.0-4.0-1.67;true
618;ImagesCoins/10R107.5.png;190;test;.;image-keyboard-response;680;751859;0.0-4.0-1.68;true
564;ImagesCoins/10R100.png;190;test;.;image-keyboard-response;682;752933;0.0-4.0-1.69;true
596;ImagesCoins/10L95.png;190;test;.;image-keyboard-response;684;754045;0.0-4.0-1.70;true
1259;ImagesCoins/10L102.5.png;188;test;,;image-keyboard-response;686;755820;0.0-4.0-1.71;true
591;ImagesCoins/10R110.png;190;test;.;image-keyboard-response;688;756918;0.0-4.0-1.72;true
753;ImagesCoins/10L102.5.png;190;test;,;image-keyboard-response;690;758184;0.0-4.0-1.73;false
531;ImagesCoins/10L100.png;190;test;.;image-keyboard-response;692;759227;0.0-4.0-1.74;true
580;ImagesCoins/10R107.5.png;190;test;.;image-keyboard-response;694;760313;0.0-4.0-1.75;true
804;ImagesCoins/10R90.png;188;test;,;image-keyboard-response;696;761628;0.0-4.0-1.76;true
571;ImagesCoins/10L95.png;190;test;.;image-keyboard-response;698;762716;0.0-4.0-1.77;true
530;ImagesCoins/10R105.png;190;test;.;image-keyboard-response;700;763755;0.0-4.0-1.78;true
595;ImagesCoins/10L90.png;190;test;.;image-keyboard-response;702;764870;0.0-4.0-1.79;true
1648;ImagesCoins/10R97.5.png;188;test;,;image-keyboard-response;704;767033;0.0-4.0-1.80;true
1069;ImagesCoins/10L107.5.png;188;test;,;image-keyboard-response;706;768621;0.0-4.0-1.81;true
728;ImagesCoins/10L92.5.png;190;test;.;image-keyboard-response;708;769866;0.0-4.0-1.82;true
635;ImagesCoins/10R102.5.png;190;test;.;image-keyboard-response;710;771006;0.0-4.0-1.83;true
456;ImagesCoins/10R92.5.png;188;test;,;image-keyboard-response;712;771970;0.0-4.0-1.84;true
429;ImagesCoins/10L105.png;188;test;,;image-keyboard-response;714;772913;0.0-4.0-1.85;true
1535;ImagesCoins/10L97.5.png;190;test;.;image-keyboard-response;716;774955;0.0-4.0-1.86;true
1395;ImagesCoins/10R95.png;188;test;,;image-keyboard-response;718;776857;0.0-4.0-1.87;true
845;ImagesCoins/10R100.png;190;test;.;image-keyboard-response;720;778217;0.0-4.0-1.88;true
557;ImagesCoins/10L110.png;188;test;,;image-keyboard-response;722;779282;0.0-4.0-1.89;true
