"rt","stimulus","key_press","test_part","correct_response","trial_type","trial_index","time_elapsed","internal_node_id","correct"
"984","ImagesSoccer/VL97.5.png","190","test",".","image-keyboard-response","4","18402","0.0-3.0-1.0","true"
"1170","ImagesDirect/VL110.png","188","test",",","image-keyboard-response","6","20086","0.0-3.0-1.1","true"
"1932","ImagesSoccer/VL107.5.png","188","test",",","image-keyboard-response","8","22528","0.0-3.0-1.2","true"
"922","ImagesSoccer/VR105.png","190","test",".","image-keyboard-response","10","23959","0.0-3.0-1.3","true"
"1169","ImagesTennis/TL90.png","190","test",".","image-keyboard-response","12","25646","0.0-3.0-1.4","true"
"1111","ImagesDirect/VR95.png","190","test",",","image-keyboard-response","14","27268","0.0-3.0-1.5","false"
"2335","ImagesSoccer/VL95.png","190","test",".","image-keyboard-response","16","30122","0.0-3.0-1.6","true"
"697","ImagesDirect/VL105.png","188","test",",","image-keyboard-response","18","31323","0.0-3.0-1.7","true"
"988","ImagesDirect/VR97.5.png","190","test",",","image-keyboard-response","20","32815","0.0-3.0-1.8","false"
"2666","ImagesSoccer/VR100.png","190","test",".","image-keyboard-response","22","35996","0.0-3.0-1.9","true"
"1945","ImagesDirect/VL92.5.png","190","test",".","image-keyboard-response","24","38450","0.0-3.0-1.10","true"
"1179","ImagesDirect/VL102.5.png","188","test",",","image-keyboard-response","26","40146","0.0-3.0-1.11","true"
"1567","ImagesTennis/TL105.png","188","test",",","image-keyboard-response","28","42233","0.0-3.0-1.12","true"
"734","ImagesTennis/TL92.5.png","190","test",".","image-keyboard-response","30","43480","0.0-3.0-1.13","true"
"1450","ImagesDirect/VR90.png","188","test",",","image-keyboard-response","32","45436","0.0-3.0-1.14","true"
"736","ImagesDirect/VR107.5.png","190","test",".","image-keyboard-response","34","46682","0.0-3.0-1.15","true"
"589","ImagesTennis/TR92.5.png","188","test",",","image-keyboard-response","36","47776","0.0-3.0-1.16","true"
"969","ImagesDirect/VL100.png","188","test",".","image-keyboard-response","38","49251","0.0-3.0-1.17","false"
"707","ImagesSoccer/VL90.png","190","test",".","image-keyboard-response","40","50473","0.0-3.0-1.18","true"
"626","ImagesDirect/VR105.png","190","test",".","image-keyboard-response","42","51611","0.0-3.0-1.19","true"
"637","ImagesTennis/TL110.png","188","test",",","image-keyboard-response","44","52754","0.0-3.0-1.20","true"
"1194","ImagesTennis/TR100.png","188","test",".","image-keyboard-response","46","54459","0.0-3.0-1.21","false"
"589","ImagesTennis/TR110.png","190","test",".","image-keyboard-response","48","55556","0.0-3.0-1.22","true"
"2149","ImagesDirect/VL95.png","188","test",".","image-keyboard-response","50","58215","0.0-3.0-1.23","false"
"994","ImagesTennis/TL100.png","190","test",".","image-keyboard-response","52","59732","0.0-3.0-1.24","true"
"834","ImagesTennis/TR95.png","188","test",",","image-keyboard-response","54","61070","0.0-3.0-1.25","true"
"637","ImagesDirect/VL90.png","190","test",".","image-keyboard-response","56","62215","0.0-3.0-1.26","true"
"519","ImagesSoccer/VL102.5.png","188","test",",","image-keyboard-response","58","63255","0.0-3.0-1.27","true"
"500","ImagesSoccer/VR107.5.png","190","test",".","image-keyboard-response","60","64275","0.0-3.0-1.28","true"
"887","ImagesTennis/TL95.png","190","test",".","image-keyboard-response","62","65683","0.0-3.0-1.29","true"
"901","ImagesSoccer/VR102.5.png","190","test",".","image-keyboard-response","64","67097","0.0-3.0-1.30","true"
"786","ImagesTennis/TR107.5.png","190","test",".","image-keyboard-response","66","68402","0.0-3.0-1.31","true"
"562","ImagesSoccer/VR110.png","190","test",".","image-keyboard-response","68","69468","0.0-3.0-1.32","true"
"812","ImagesDirect/VR102.5.png","188","test",".","image-keyboard-response","70","70788","0.0-3.0-1.33","false"
"824","ImagesDirect/VL107.5.png","188","test",",","image-keyboard-response","72","72121","0.0-3.0-1.34","true"
"921","ImagesTennis/TR105.png","190","test",".","image-keyboard-response","74","73558","0.0-3.0-1.35","true"
"764","ImagesDirect/VL97.5.png","188","test",".","image-keyboard-response","76","74839","0.0-3.0-1.36","false"
"973","ImagesSoccer/VR92.5.png","188","test",",","image-keyboard-response","78","76328","0.0-3.0-1.37","true"
"666","ImagesSoccer/VL92.5.png","190","test",".","image-keyboard-response","80","77503","0.0-3.0-1.38","true"
"670","ImagesTennis/TL107.5.png","188","test",",","image-keyboard-response","82","78687","0.0-3.0-1.39","true"
"679","ImagesTennis/TR90.png","188","test",",","image-keyboard-response","84","79875","0.0-3.0-1.40","true"
"676","ImagesSoccer/VL100.png","190","test",".","image-keyboard-response","86","81073","0.0-3.0-1.41","true"
"590","ImagesSoccer/VL105.png","188","test",",","image-keyboard-response","88","82167","0.0-3.0-1.42","true"
"604","ImagesSoccer/VR97.5.png","190","test",",","image-keyboard-response","90","83281","0.0-3.0-1.43","false"
"760","ImagesDirect/VR92.5.png","188","test",",","image-keyboard-response","92","84556","0.0-3.0-1.44","true"
"2087","ImagesTennis/TR102.5.png","188","test",".","image-keyboard-response","94","87162","0.0-3.0-1.45","false"
"1199","ImagesTennis/TL102.5.png","188","test",",","image-keyboard-response","96","88866","0.0-3.0-1.46","true"
"1302","ImagesDirect/VR100.png","190","test",".","image-keyboard-response","98","90679","0.0-3.0-1.47","true"
"571","ImagesDirect/VR110.png","190","test",".","image-keyboard-response","100","91767","0.0-3.0-1.48","true"
"529","ImagesSoccer/VL110.png","188","test",",","image-keyboard-response","102","92805","0.0-3.0-1.49","true"
"1166","ImagesTennis/TL97.5.png","190","test",".","image-keyboard-response","104","94493","0.0-3.0-1.50","true"
"1160","ImagesTennis/TR97.5.png","188","test",",","image-keyboard-response","106","96166","0.0-3.0-1.51","true"
"1297","ImagesSoccer/VR95.png","188","test",",","image-keyboard-response","108","97982","0.0-3.0-1.52","true"
"744","ImagesSoccer/VR90.png","188","test",",","image-keyboard-response","110","99231","0.0-3.0-1.53","true"
"1315","ImagesTennis/TR102.5.png","188","test",".","image-keyboard-response","112","101061","0.0-3.0-1.54","false"
"880","ImagesSoccer/VR92.5.png","188","test",",","image-keyboard-response","114","102446","0.0-3.0-1.55","true"
"632","ImagesDirect/VL110.png","188","test",",","image-keyboard-response","116","103597","0.0-3.0-1.56","true"
"990","ImagesDirect/VL100.png","188","test",".","image-keyboard-response","118","105097","0.0-3.0-1.57","false"
"1920","ImagesTennis/TL102.5.png","188","test",",","image-keyboard-response","120","107521","0.0-3.0-1.58","true"
"870","ImagesDirect/VL102.5.png","188","test",",","image-keyboard-response","122","108896","0.0-3.0-1.59","true"
"780","ImagesDirect/VR107.5.png","190","test",".","image-keyboard-response","124","110185","0.0-3.0-1.60","true"
"2292","ImagesDirect/VL97.5.png","188","test",".","image-keyboard-response","126","112997","0.0-3.0-1.61","false"
"592","ImagesSoccer/VL107.5.png","188","test",",","image-keyboard-response","128","114098","0.0-3.0-1.62","true"
"1456","ImagesTennis/TL105.png","190","test",",","image-keyboard-response","130","116063","0.0-3.0-1.63","false"
"519","ImagesSoccer/VL90.png","190","test",".","image-keyboard-response","132","117085","0.0-3.0-1.64","true"
"613","ImagesTennis/TR100.png","188","test",".","image-keyboard-response","134","118219","0.0-3.0-1.65","false"
"495","ImagesSoccer/VL92.5.png","190","test",".","image-keyboard-response","136","119215","0.0-3.0-1.66","true"
"542","ImagesSoccer/VR107.5.png","190","test",".","image-keyboard-response","138","120278","0.0-3.0-1.67","true"
"699","ImagesDirect/VR105.png","190","test",".","image-keyboard-response","140","121484","0.0-3.0-1.68","true"
"1433","ImagesTennis/TL100.png","190","test",".","image-keyboard-response","142","123418","0.0-3.0-1.69","true"
"1266","ImagesDirect/VL90.png","190","test",".","image-keyboard-response","144","125191","0.0-3.0-1.70","true"
"608","ImagesDirect/VR100.png","190","test",".","image-keyboard-response","146","126314","0.0-3.0-1.71","true"
"793","ImagesSoccer/VR102.5.png","190","test",".","image-keyboard-response","148","127620","0.0-3.0-1.72","true"
"656","ImagesTennis/TL107.5.png","188","test",",","image-keyboard-response","150","128781","0.0-3.0-1.73","true"
"711","ImagesTennis/TR110.png","190","test",".","image-keyboard-response","152","129996","0.0-3.0-1.74","true"
"1111","ImagesSoccer/VR95.png","188","test",",","image-keyboard-response","154","131615","0.0-3.0-1.75","true"
"491","ImagesSoccer/VL110.png","188","test",",","image-keyboard-response","156","132616","0.0-3.0-1.76","true"
"669","ImagesSoccer/VR90.png","188","test",",","image-keyboard-response","158","133794","0.0-3.0-1.77","true"
"1041","ImagesTennis/TR107.5.png","190","test",".","image-keyboard-response","160","135346","0.0-3.0-1.78","true"
"517","ImagesSoccer/VL105.png","188","test",",","image-keyboard-response","162","136382","0.0-3.0-1.79","true"
"538","ImagesTennis/TR90.png","188","test",",","image-keyboard-response","164","137423","0.0-3.0-1.80","true"
"903","ImagesDirect/VR92.5.png","188","test",",","image-keyboard-response","166","138829","0.0-3.0-1.81","true"
"502","ImagesTennis/TL97.5.png","190","test",".","image-keyboard-response","168","139847","0.0-3.0-1.82","true"
"500","ImagesTennis/TR92.5.png","188","test",",","image-keyboard-response","170","140867","0.0-3.0-1.83","true"
"1490","ImagesDirect/VL95.png","188","test",".","image-keyboard-response","172","142876","0.0-3.0-1.84","false"
"808","ImagesTennis/TL92.5.png","190","test",".","image-keyboard-response","174","144195","0.0-3.0-1.85","true"
"476","ImagesDirect/VL107.5.png","188","test",",","image-keyboard-response","176","145181","0.0-3.0-1.86","true"
"633","ImagesTennis/TR105.png","190","test",".","image-keyboard-response","178","146318","0.0-3.0-1.87","true"
"666","ImagesTennis/TR97.5.png","188","test",",","image-keyboard-response","180","147491","0.0-3.0-1.88","true"
"642","ImagesTennis/TL90.png","190","test",".","image-keyboard-response","182","148638","0.0-3.0-1.89","true"
"1002","ImagesSoccer/VL97.5.png","190","test",".","image-keyboard-response","184","150158","0.0-3.0-1.90","true"
"2128","ImagesDirect/VR90.png","188","test",",","image-keyboard-response","186","152803","0.0-3.0-1.91","true"
"698","ImagesTennis/TL95.png","190","test",".","image-keyboard-response","188","154003","0.0-3.0-1.92","true"
"511","ImagesTennis/TR95.png","188","test",",","image-keyboard-response","190","155017","0.0-3.0-1.93","true"
"611","ImagesDirect/VL92.5.png","190","test",".","image-keyboard-response","192","156138","0.0-3.0-1.94","true"
"520","ImagesDirect/VL105.png","188","test",",","image-keyboard-response","194","157165","0.0-3.0-1.95","true"
"1206","ImagesSoccer/VL102.5.png","188","test",",","image-keyboard-response","196","158891","0.0-3.0-1.96","true"
"440","ImagesSoccer/VR97.5.png","190","test",",","image-keyboard-response","198","159847","0.0-3.0-1.97","false"
"1009","ImagesDirect/VR95.png","190","test",",","image-keyboard-response","200","161376","0.0-3.0-1.98","false"
"1473","ImagesSoccer/VL95.png","190","test",".","image-keyboard-response","202","163356","0.0-3.0-1.99","true"
"791","ImagesDirect/VR97.5.png","190","test",",","image-keyboard-response","204","164657","0.0-3.0-1.100","false"
"636","ImagesDirect/VR110.png","190","test",".","image-keyboard-response","206","165803","0.0-3.0-1.101","true"
"743","ImagesDirect/VR102.5.png","190","test",".","image-keyboard-response","208","167051","0.0-3.0-1.102","true"
"2992","ImagesSoccer/VL100.png","188","test",".","image-keyboard-response","210","170558","0.0-3.0-1.103","false"
"502","ImagesSoccer/VR100.png","190","test",".","image-keyboard-response","212","171567","0.0-3.0-1.104","true"
"714","ImagesTennis/TL110.png","188","test",",","image-keyboard-response","214","172801","0.0-3.0-1.105","true"
"587","ImagesSoccer/VR105.png","190","test",".","image-keyboard-response","216","173893","0.0-3.0-1.106","true"
"776","ImagesSoccer/VR110.png","190","test",".","image-keyboard-response","218","175183","0.0-3.0-1.107","true"
"604","ImagesSoccer/VL105.png","188","test",",","image-keyboard-response","220","176290","0.0-3.0-1.108","true"
"998","ImagesTennis/TL107.5.png","188","test",",","image-keyboard-response","222","177800","0.0-3.0-1.109","true"
"1898","ImagesDirect/VL100.png","188","test",".","image-keyboard-response","224","180202","0.0-3.0-1.110","false"
"1108","ImagesSoccer/VL92.5.png","190","test",".","image-keyboard-response","226","181813","0.0-3.0-1.111","true"
"937","ImagesSoccer/VL102.5.png","188","test",",","image-keyboard-response","228","183262","0.0-3.0-1.112","true"
"1752","ImagesDirect/VR95.png","190","test",",","image-keyboard-response","230","185518","0.0-3.0-1.113","false"
"626","ImagesTennis/TR95.png","188","test",",","image-keyboard-response","232","186651","0.0-3.0-1.114","true"
"660","ImagesDirect/VR105.png","190","test",".","image-keyboard-response","234","187825","0.0-3.0-1.115","true"
"541","ImagesTennis/TL90.png","190","test",".","image-keyboard-response","236","188887","0.0-3.0-1.116","true"
"859","ImagesTennis/TR105.png","190","test",".","image-keyboard-response","238","190264","0.0-3.0-1.117","true"
"559","ImagesTennis/TL102.5.png","188","test",",","image-keyboard-response","240","191324","0.0-3.0-1.118","true"
"625","ImagesDirect/VL95.png","190","test",".","image-keyboard-response","242","192471","0.0-3.0-1.119","true"
"978","ImagesTennis/TR100.png","188","test",".","image-keyboard-response","244","193964","0.0-3.0-1.120","false"
"458","ImagesTennis/TL92.5.png","190","test",".","image-keyboard-response","246","194933","0.0-3.0-1.121","true"
"461","ImagesSoccer/VR110.png","190","test",".","image-keyboard-response","248","195898","0.0-3.0-1.122","true"
"686","ImagesSoccer/VR92.5.png","188","test",",","image-keyboard-response","250","197102","0.0-3.0-1.123","true"
"599","ImagesDirect/VR90.png","190","test",",","image-keyboard-response","252","198214","0.0-3.0-1.124","false"
"588","ImagesTennis/TR107.5.png","190","test",".","image-keyboard-response","254","199303","0.0-3.0-1.125","true"
"604","ImagesTennis/TR97.5.png","188","test",",","image-keyboard-response","256","200419","0.0-3.0-1.126","true"
"469","ImagesSoccer/VR97.5.png","190","test",",","image-keyboard-response","258","201404","0.0-3.0-1.127","false"
"510","ImagesDirect/VR97.5.png","188","test",",","image-keyboard-response","260","202425","0.0-3.0-1.128","true"
"415","ImagesSoccer/VR107.5.png","190","test",".","image-keyboard-response","262","203351","0.0-3.0-1.129","true"
"401","ImagesDirect/VR102.5.png","190","test",".","image-keyboard-response","264","204256","0.0-3.0-1.130","true"
"488","ImagesSoccer/VR105.png","190","test",".","image-keyboard-response","266","205254","0.0-3.0-1.131","true"
"1454","ImagesDirect/VR100.png","190","test",".","image-keyboard-response","268","207220","0.0-3.0-1.132","true"
"938","ImagesTennis/TL100.png","188","test",".","image-keyboard-response","270","208663","0.0-3.0-1.133","false"
"956","ImagesDirect/VL90.png","190","test",".","image-keyboard-response","272","210121","0.0-3.0-1.134","true"
"814","ImagesDirect/VL107.5.png","188","test",",","image-keyboard-response","274","211439","0.0-3.0-1.135","true"
"671","ImagesSoccer/VL90.png","190","test",".","image-keyboard-response","276","212626","0.0-3.0-1.136","true"
"591","ImagesSoccer/VL110.png","188","test",",","image-keyboard-response","278","213727","0.0-3.0-1.137","true"
"1589","ImagesSoccer/VR95.png","188","test",",","image-keyboard-response","280","215825","0.0-3.0-1.138","true"
"953","ImagesDirect/VR92.5.png","190","test",",","image-keyboard-response","282","217288","0.0-3.0-1.139","false"
"1072","ImagesTennis/TR92.5.png","188","test",",","image-keyboard-response","284","218868","0.0-3.0-1.140","true"
"559","ImagesDirect/VL110.png","188","test",",","image-keyboard-response","286","219935","0.0-3.0-1.141","true"
"651","ImagesDirect/VL105.png","188","test",",","image-keyboard-response","288","221106","0.0-3.0-1.142","true"
"1984","ImagesDirect/VL97.5.png","188","test",".","image-keyboard-response","290","223599","0.0-3.0-1.143","false"
"805","ImagesTennis/TR102.5.png","190","test",".","image-keyboard-response","292","224920","0.0-3.0-1.144","true"
"617","ImagesDirect/VR110.png","190","test",".","image-keyboard-response","294","226052","0.0-3.0-1.145","true"
"721","ImagesTennis/TL105.png","188","test",",","image-keyboard-response","296","227277","0.0-3.0-1.146","true"
"661","ImagesTennis/TR90.png","188","test",",","image-keyboard-response","298","228457","0.0-3.0-1.147","true"
"660","ImagesSoccer/VR100.png","190","test",".","image-keyboard-response","300","229636","0.0-3.0-1.148","true"
"664","ImagesSoccer/VL100.png","188","test",".","image-keyboard-response","302","230821","0.0-3.0-1.149","false"
"1049","ImagesTennis/TL97.5.png","188","test",".","image-keyboard-response","304","232385","0.0-3.0-1.150","false"
"996","ImagesSoccer/VL95.png","190","test",".","image-keyboard-response","306","233892","0.0-3.0-1.151","true"
"606","ImagesDirect/VR107.5.png","190","test",".","image-keyboard-response","308","235001","0.0-3.0-1.152","true"
"528","ImagesSoccer/VL97.5.png","188","test",".","image-keyboard-response","310","236043","0.0-3.0-1.153","false"
"480","ImagesDirect/VL102.5.png","188","test",",","image-keyboard-response","312","237035","0.0-3.0-1.154","true"
"584","ImagesSoccer/VR102.5.png","190","test",".","image-keyboard-response","314","238134","0.0-3.0-1.155","true"
"470","ImagesTennis/TL110.png","188","test",",","image-keyboard-response","316","239123","0.0-3.0-1.156","true"
"565","ImagesTennis/TL95.png","190","test",".","image-keyboard-response","318","240191","0.0-3.0-1.157","true"
"713","ImagesTennis/TR110.png","190","test",".","image-keyboard-response","320","241419","0.0-3.0-1.158","true"
"1085","ImagesDirect/VL92.5.png","190","test",".","image-keyboard-response","322","243011","0.0-3.0-1.159","true"
"533","ImagesSoccer/VL107.5.png","188","test",",","image-keyboard-response","324","244059","0.0-3.0-1.160","true"
"1021","ImagesSoccer/VR90.png","188","test",",","image-keyboard-response","326","245588","0.0-3.0-1.161","true"
"418","ImagesDirect/VL107.5.png","188","test",",","image-keyboard-response","328","246524","0.0-3.0-1.162","true"
"1186","ImagesTennis/TL107.5.png","190","test",",","image-keyboard-response","330","248211","0.0-3.0-1.163","false"
"841","ImagesTennis/TR92.5.png","188","test",",","image-keyboard-response","332","249567","0.0-3.0-1.164","true"
"526","ImagesTennis/TL102.5.png","188","test",",","image-keyboard-response","334","250611","0.0-3.0-1.165","true"
"507","ImagesSoccer/VR107.5.png","190","test",".","image-keyboard-response","336","251632","0.0-3.0-1.166","true"
"614","ImagesDirect/VL102.5.png","188","test",",","image-keyboard-response","338","252749","0.0-3.0-1.167","true"
"718","ImagesTennis/TR97.5.png","188","test",",","image-keyboard-response","340","253983","0.0-3.0-1.168","true"
"1606","ImagesTennis/TL100.png","190","test",".","image-keyboard-response","342","256093","0.0-3.0-1.169","true"
"1181","ImagesDirect/VR95.png","190","test",",","image-keyboard-response","344","257786","0.0-3.0-1.170","false"
"558","ImagesDirect/VL90.png","190","test",".","image-keyboard-response","346","258865","0.0-3.0-1.171","true"
"500","ImagesSoccer/VR105.png","190","test",".","image-keyboard-response","348","259874","0.0-3.0-1.172","true"
"513","ImagesSoccer/VL107.5.png","188","test",",","image-keyboard-response","350","260888","0.0-3.0-1.173","true"
"1363","ImagesDirect/VR92.5.png","190","test",",","image-keyboard-response","352","262758","0.0-3.0-1.174","false"
"2376","ImagesTennis/TR95.png","188","test",",","image-keyboard-response","354","265652","0.0-3.0-1.175","true"
"531","ImagesSoccer/VR102.5.png","190","test",".","image-keyboard-response","356","266685","0.0-3.0-1.176","true"
"638","ImagesTennis/TL92.5.png","190","test",".","image-keyboard-response","358","267843","0.0-3.0-1.177","true"
"877","ImagesDirect/VR100.png","190","test",".","image-keyboard-response","360","269222","0.0-3.0-1.178","true"
"426","ImagesDirect/VR110.png","190","test",".","image-keyboard-response","362","270151","0.0-3.0-1.179","true"
"419","ImagesTennis/TR90.png","188","test",",","image-keyboard-response","364","271085","0.0-3.0-1.180","true"
"766","ImagesSoccer/VL92.5.png","188","test",".","image-keyboard-response","366","272371","0.0-3.0-1.181","false"
"448","ImagesSoccer/VL95.png","188","test",".","image-keyboard-response","368","273333","0.0-3.0-1.182","false"
"830","ImagesSoccer/VR95.png","188","test",",","image-keyboard-response","370","274676","0.0-3.0-1.183","true"
"442","ImagesSoccer/VR110.png","190","test",".","image-keyboard-response","372","275627","0.0-3.0-1.184","true"
"682","ImagesTennis/TL95.png","190","test",".","image-keyboard-response","374","276828","0.0-3.0-1.185","true"
"522","ImagesDirect/VR105.png","190","test",".","image-keyboard-response","376","277868","0.0-3.0-1.186","true"
"767","ImagesTennis/TL105.png","188","test",",","image-keyboard-response","378","279153","0.0-3.0-1.187","true"
"495","ImagesSoccer/VL105.png","188","test",",","image-keyboard-response","380","280161","0.0-3.0-1.188","true"
"420","ImagesDirect/VR107.5.png","190","test",".","image-keyboard-response","382","281085","0.0-3.0-1.189","true"
"464","ImagesSoccer/VL110.png","188","test",",","image-keyboard-response","384","282071","0.0-3.0-1.190","true"
"685","ImagesDirect/VR90.png","188","test",",","image-keyboard-response","386","283272","0.0-3.0-1.191","true"
"497","ImagesSoccer/VR100.png","190","test",".","image-keyboard-response","388","284282","0.0-3.0-1.192","true"
"489","ImagesSoccer/VL102.5.png","188","test",",","image-keyboard-response","390","285275","0.0-3.0-1.193","true"
"940","ImagesDirect/VL95.png","188","test",".","image-keyboard-response","392","286724","0.0-3.0-1.194","false"
"375","ImagesDirect/VL110.png","188","test",",","image-keyboard-response","394","287621","0.0-3.0-1.195","true"
"1327","ImagesSoccer/VL97.5.png","190","test",".","image-keyboard-response","396","289453","0.0-3.0-1.196","true"
"386","ImagesSoccer/VR97.5.png","188","test",",","image-keyboard-response","398","290352","0.0-3.0-1.197","true"
"976","ImagesSoccer/VR92.5.png","188","test",",","image-keyboard-response","400","291841","0.0-3.0-1.198","true"
"468","ImagesTennis/TR100.png","188","test",".","image-keyboard-response","402","292815","0.0-3.0-1.199","false"
"547","ImagesTennis/TL90.png","190","test",".","image-keyboard-response","404","293873","0.0-3.0-1.200","true"
"485","ImagesTennis/TR105.png","188","test",".","image-keyboard-response","406","294871","0.0-3.0-1.201","false"
"591","ImagesTennis/TL110.png","188","test",",","image-keyboard-response","408","295976","0.0-3.0-1.202","true"
"1081","ImagesTennis/TR102.5.png","190","test",".","image-keyboard-response","410","297566","0.0-3.0-1.203","true"
"1246","ImagesDirect/VL97.5.png","188","test",".","image-keyboard-response","412","299331","0.0-3.0-1.204","false"
"457","ImagesDirect/VR102.5.png","190","test",".","image-keyboard-response","414","300303","0.0-3.0-1.205","true"
"698","ImagesTennis/TR107.5.png","190","test",".","image-keyboard-response","416","301503","0.0-3.0-1.206","true"
"450","ImagesSoccer/VR90.png","188","test",",","image-keyboard-response","418","302457","0.0-3.0-1.207","true"
"752","ImagesDirect/VL100.png","188","test",".","image-keyboard-response","420","303719","0.0-3.0-1.208","false"
"568","ImagesTennis/TL97.5.png","190","test",".","image-keyboard-response","422","304793","0.0-3.0-1.209","true"
"448","ImagesDirect/VL92.5.png","188","test",".","image-keyboard-response","424","305743","0.0-3.0-1.210","false"
"475","ImagesDirect/VR97.5.png","190","test",",","image-keyboard-response","426","306740","0.0-3.0-1.211","false"
"371","ImagesDirect/VL105.png","188","test",",","image-keyboard-response","428","307614","0.0-3.0-1.212","true"
"605","ImagesSoccer/VL90.png","190","test",".","image-keyboard-response","430","308731","0.0-3.0-1.213","true"
"590","ImagesSoccer/VL100.png","188","test",".","image-keyboard-response","432","309825","0.0-3.0-1.214","false"
"470","ImagesTennis/TR110.png","190","test",".","image-keyboard-response","434","310816","0.0-3.0-1.215","true"
"472","ImagesDirect/VL105.png","188","test",",","image-keyboard-response","436","311797","0.0-3.0-1.216","true"
"494","ImagesSoccer/VR97.5.png","190","test",",","image-keyboard-response","438","312800","0.0-3.0-1.217","false"
"502","ImagesDirect/VR92.5.png","188","test",",","image-keyboard-response","440","313808","0.0-3.0-1.218","true"
"681","ImagesDirect/VL100.png","188","test",".","image-keyboard-response","442","315007","0.0-3.0-1.219","false"
"821","ImagesSoccer/VL92.5.png","190","test",".","image-keyboard-response","444","316347","0.0-3.0-1.220","true"
"605","ImagesTennis/TR100.png","188","test",".","image-keyboard-response","446","317470","0.0-3.0-1.221","false"
"777","ImagesDirect/VR105.png","190","test",".","image-keyboard-response","448","318763","0.0-3.0-1.222","true"
"1321","ImagesTennis/TR102.5.png","190","test",".","image-keyboard-response","450","320608","0.0-3.0-1.223","true"
"567","ImagesTennis/TL107.5.png","188","test",",","image-keyboard-response","452","321694","0.0-3.0-1.224","true"
"1351","ImagesDirect/VL92.5.png","188","test",".","image-keyboard-response","454","323556","0.0-3.0-1.225","false"
"2627","ImagesDirect/VL95.png","190","test",".","image-keyboard-response","456","326693","0.0-3.0-1.226","true"
"764","ImagesTennis/TL90.png","190","test",".","image-keyboard-response","458","327970","0.0-3.0-1.227","true"
"507","ImagesTennis/TL95.png","190","test",".","image-keyboard-response","460","328983","0.0-3.0-1.228","true"
"541","ImagesSoccer/VL110.png","188","test",",","image-keyboard-response","462","330027","0.0-3.0-1.229","true"
"820","ImagesSoccer/VR105.png","190","test",".","image-keyboard-response","464","331365","0.0-3.0-1.230","true"
"1663","ImagesSoccer/VR102.5.png","190","test",".","image-keyboard-response","466","333543","0.0-3.0-1.231","true"
"614","ImagesSoccer/VR92.5.png","188","test",",","image-keyboard-response","468","334659","0.0-3.0-1.232","true"
"1021","ImagesTennis/TR110.png","190","test",".","image-keyboard-response","470","336196","0.0-3.0-1.233","true"
"685","ImagesTennis/TL102.5.png","190","test",",","image-keyboard-response","472","337401","0.0-3.0-1.234","false"
"899","ImagesTennis/TR97.5.png","188","test",",","image-keyboard-response","474","338815","0.0-3.0-1.235","true"
"611","ImagesSoccer/VL105.png","188","test",",","image-keyboard-response","476","339947","0.0-3.0-1.236","true"
"690","ImagesTennis/TR107.5.png","190","test",".","image-keyboard-response","478","341146","0.0-3.0-1.237","true"
"551","ImagesDirect/VL97.5.png","188","test",".","image-keyboard-response","480","342206","0.0-3.0-1.238","false"
"581","ImagesSoccer/VL107.5.png","188","test",",","image-keyboard-response","482","343297","0.0-3.0-1.239","true"
"618","ImagesDirect/VR110.png","190","test",".","image-keyboard-response","484","344433","0.0-3.0-1.240","true"
"549","ImagesTennis/TL92.5.png","190","test",".","image-keyboard-response","486","345485","0.0-3.0-1.241","true"
"589","ImagesSoccer/VR107.5.png","190","test",".","image-keyboard-response","488","346586","0.0-3.0-1.242","true"
"575","ImagesDirect/VR102.5.png","190","test",".","image-keyboard-response","490","347671","0.0-3.0-1.243","true"
"569","ImagesSoccer/VR95.png","188","test",",","image-keyboard-response","492","348746","0.0-3.0-1.244","true"
"687","ImagesTennis/TL100.png","188","test",".","image-keyboard-response","494","349943","0.0-3.0-1.245","false"
"531","ImagesSoccer/VR100.png","190","test",".","image-keyboard-response","496","350987","0.0-3.0-1.246","true"
"619","ImagesDirect/VR100.png","188","test",".","image-keyboard-response","498","352115","0.0-3.0-1.247","false"
"604","ImagesTennis/TR105.png","188","test",".","image-keyboard-response","500","353229","0.0-3.0-1.248","false"
"658","ImagesDirect/VR90.png","188","test",",","image-keyboard-response","502","354404","0.0-3.0-1.249","true"
"865","ImagesSoccer/VL95.png","188","test",".","image-keyboard-response","504","355770","0.0-3.0-1.250","false"
"499","ImagesDirect/VL110.png","188","test",",","image-keyboard-response","506","356784","0.0-3.0-1.251","true"
"924","ImagesDirect/VR95.png","188","test",",","image-keyboard-response","508","358230","0.0-3.0-1.252","true"
"540","ImagesDirect/VR107.5.png","190","test",".","image-keyboard-response","510","359275","0.0-3.0-1.253","true"
"686","ImagesSoccer/VL100.png","188","test",".","image-keyboard-response","512","360471","0.0-3.0-1.254","false"
"532","ImagesDirect/VL107.5.png","188","test",",","image-keyboard-response","514","361517","0.0-3.0-1.255","true"
"602","ImagesTennis/TR92.5.png","188","test",",","image-keyboard-response","516","362627","0.0-3.0-1.256","true"
"605","ImagesSoccer/VL97.5.png","190","test",".","image-keyboard-response","518","363751","0.0-3.0-1.257","true"
"480","ImagesTennis/TL110.png","188","test",",","image-keyboard-response","520","364735","0.0-3.0-1.258","true"
"777","ImagesTennis/TL105.png","190","test",",","image-keyboard-response","522","366032","0.0-3.0-1.259","false"
"524","ImagesTennis/TR90.png","188","test",",","image-keyboard-response","524","367059","0.0-3.0-1.260","true"
"1280","ImagesDirect/VL90.png","190","test",".","image-keyboard-response","526","368857","0.0-3.0-1.261","true"
"654","ImagesSoccer/VL90.png","190","test",".","image-keyboard-response","528","370030","0.0-3.0-1.262","true"
"572","ImagesTennis/TL97.5.png","190","test",".","image-keyboard-response","530","371107","0.0-3.0-1.263","true"
"596","ImagesSoccer/VR110.png","188","test",".","image-keyboard-response","532","372212","0.0-3.0-1.264","false"
"867","ImagesDirect/VR97.5.png","188","test",",","image-keyboard-response","534","373582","0.0-3.0-1.265","true"
"597","ImagesTennis/TR95.png","188","test",",","image-keyboard-response","536","374684","0.0-3.0-1.266","true"
"696","ImagesSoccer/VL102.5.png","188","test",",","image-keyboard-response","538","375881","0.0-3.0-1.267","true"
"841","ImagesDirect/VL102.5.png","188","test",",","image-keyboard-response","540","377227","0.0-3.0-1.268","true"
"764","ImagesSoccer/VR90.png","188","test",",","image-keyboard-response","542","378509","0.0-3.0-1.269","true"
"2670","ImagesCoins/10R105.png","190","test",".","image-keyboard-response","544","381697","0.0-4.0-1.0","true"
"945","ImagesCoins/10R90.png","188","test",",","image-keyboard-response","546","383151","0.0-4.0-1.1","true"
"1129","ImagesCoins/10L102.5.png","188","test",",","image-keyboard-response","548","384796","0.0-4.0-1.2","true"
"777","ImagesCoins/10L110.png","188","test",",","image-keyboard-response","550","386085","0.0-4.0-1.3","true"
"910","ImagesCoins/10R107.5.png","190","test",".","image-keyboard-response","552","387516","0.0-4.0-1.4","true"
"1517","ImagesCoins/10L97.5.png","190","test",".","image-keyboard-response","554","389544","0.0-4.0-1.5","true"
"705","ImagesCoins/10L107.5.png","188","test",",","image-keyboard-response","556","390752","0.0-4.0-1.6","true"
"2450","ImagesCoins/10R100.png","190","test",".","image-keyboard-response","558","393705","0.0-4.0-1.7","true"
"1274","ImagesCoins/10L105.png","190","test",",","image-keyboard-response","560","395491","0.0-4.0-1.8","false"
"1289","ImagesCoins/10R97.5.png","190","test",",","image-keyboard-response","562","397285","0.0-4.0-1.9","false"
"1578","ImagesCoins/10L95.png","190","test",".","image-keyboard-response","564","399375","0.0-4.0-1.10","true"
"748","ImagesCoins/10L100.png","188","test",".","image-keyboard-response","566","400645","0.0-4.0-1.11","false"
"1134","ImagesCoins/10L92.5.png","190","test",".","image-keyboard-response","568","402290","0.0-4.0-1.12","true"
"759","ImagesCoins/10R110.png","190","test",".","image-keyboard-response","570","403557","0.0-4.0-1.13","true"
"658","ImagesCoins/10R92.5.png","188","test",",","image-keyboard-response","572","404724","0.0-4.0-1.14","true"
"1525","ImagesCoins/10R95.png","190","test",",","image-keyboard-response","574","406770","0.0-4.0-1.15","false"
"813","ImagesCoins/10R102.5.png","190","test",".","image-keyboard-response","576","408099","0.0-4.0-1.16","true"
"839","ImagesCoins/10L90.png","190","test",".","image-keyboard-response","578","409444","0.0-4.0-1.17","true"
"820","ImagesCoins/10R92.5.png","188","test",",","image-keyboard-response","580","410786","0.0-4.0-1.18","true"
"657","ImagesCoins/10L110.png","188","test",",","image-keyboard-response","582","411963","0.0-4.0-1.19","true"
"886","ImagesCoins/10R90.png","190","test",",","image-keyboard-response","584","413351","0.0-4.0-1.20","false"
"886","ImagesCoins/10L107.5.png","188","test",",","image-keyboard-response","586","414753","0.0-4.0-1.21","true"
"562","ImagesCoins/10R100.png","190","test",".","image-keyboard-response","588","415818","0.0-4.0-1.22","true"
"884","ImagesCoins/10L92.5.png","190","test",".","image-keyboard-response","590","417209","0.0-4.0-1.23","true"
"726","ImagesCoins/10R102.5.png","190","test",".","image-keyboard-response","592","418451","0.0-4.0-1.24","true"
"704","ImagesCoins/10R97.5.png","188","test",",","image-keyboard-response","594","419669","0.0-4.0-1.25","true"
"647","ImagesCoins/10L90.png","190","test",".","image-keyboard-response","596","420832","0.0-4.0-1.26","true"
"453","ImagesCoins/10R110.png","190","test",".","image-keyboard-response","598","421788","0.0-4.0-1.27","true"
"1537","ImagesCoins/10L100.png","188","test",".","image-keyboard-response","600","423842","0.0-4.0-1.28","false"
"846","ImagesCoins/10R105.png","190","test",".","image-keyboard-response","602","425192","0.0-4.0-1.29","true"
"778","ImagesCoins/10L105.png","188","test",",","image-keyboard-response","604","426484","0.0-4.0-1.30","true"
"1464","ImagesCoins/10L95.png","190","test",".","image-keyboard-response","606","428451","0.0-4.0-1.31","true"
"1246","ImagesCoins/10L97.5.png","190","test",".","image-keyboard-response","608","430213","0.0-4.0-1.32","true"
"501","ImagesCoins/10R107.5.png","190","test",".","image-keyboard-response","610","431217","0.0-4.0-1.33","true"
"872","ImagesCoins/10R95.png","188","test",",","image-keyboard-response","612","432607","0.0-4.0-1.34","true"
"545","ImagesCoins/10L102.5.png","188","test",",","image-keyboard-response","614","433660","0.0-4.0-1.35","true"
"507","ImagesCoins/10R110.png","190","test",".","image-keyboard-response","616","434682","0.0-4.0-1.36","true"
"1092","ImagesCoins/10R95.png","188","test",",","image-keyboard-response","618","436287","0.0-4.0-1.37","true"
"720","ImagesCoins/10R102.5.png","190","test",".","image-keyboard-response","620","437516","0.0-4.0-1.38","true"
"1249","ImagesCoins/10R105.png","190","test",".","image-keyboard-response","622","439285","0.0-4.0-1.39","true"
"946","ImagesCoins/10L100.png","190","test",".","image-keyboard-response","624","440743","0.0-4.0-1.40","true"
"1415","ImagesCoins/10L95.png","190","test",".","image-keyboard-response","626","442671","0.0-4.0-1.41","true"
"603","ImagesCoins/10L105.png","188","test",",","image-keyboard-response","628","443778","0.0-4.0-1.42","true"
"730","ImagesCoins/10R100.png","190","test",".","image-keyboard-response","630","445025","0.0-4.0-1.43","true"
"802","ImagesCoins/10R90.png","188","test",",","image-keyboard-response","632","446338","0.0-4.0-1.44","true"
"1316","ImagesCoins/10L90.png","190","test",".","image-keyboard-response","634","448172","0.0-4.0-1.45","true"
"1092","ImagesCoins/10L102.5.png","188","test",",","image-keyboard-response","636","449767","0.0-4.0-1.46","true"
"756","ImagesCoins/10L107.5.png","188","test",",","image-keyboard-response","638","451031","0.0-4.0-1.47","true"
"770","ImagesCoins/10L97.5.png","190","test",".","image-keyboard-response","640","452305","0.0-4.0-1.48","true"
"633","ImagesCoins/10R97.5.png","190","test",",","image-keyboard-response","642","453449","0.0-4.0-1.49","false"
"946","ImagesCoins/10R92.5.png","188","test",",","image-keyboard-response","644","454902","0.0-4.0-1.50","true"
"684","ImagesCoins/10R107.5.png","190","test",".","image-keyboard-response","646","456099","0.0-4.0-1.51","true"
"627","ImagesCoins/10L92.5.png","190","test",".","image-keyboard-response","648","457243","0.0-4.0-1.52","true"
"831","ImagesCoins/10L110.png","188","test",",","image-keyboard-response","650","458587","0.0-4.0-1.53","true"
"855","ImagesCoins/10R92.5.png","188","test",",","image-keyboard-response","652","459950","0.0-4.0-1.54","true"
"764","ImagesCoins/10L97.5.png","190","test",".","image-keyboard-response","654","461220","0.0-4.0-1.55","true"
"565","ImagesCoins/10R110.png","190","test",".","image-keyboard-response","656","462301","0.0-4.0-1.56","true"
"1430","ImagesCoins/10R97.5.png","190","test",",","image-keyboard-response","658","464245","0.0-4.0-1.57","false"
"624","ImagesCoins/10L95.png","190","test",".","image-keyboard-response","660","465380","0.0-4.0-1.58","true"
"949","ImagesCoins/10L90.png","190","test",".","image-keyboard-response","662","466845","0.0-4.0-1.59","true"
"565","ImagesCoins/10L110.png","188","test",",","image-keyboard-response","664","467922","0.0-4.0-1.60","true"
"585","ImagesCoins/10R90.png","188","test",",","image-keyboard-response","666","469021","0.0-4.0-1.61","true"
"679","ImagesCoins/10R107.5.png","190","test",".","image-keyboard-response","668","470214","0.0-4.0-1.62","true"
"564","ImagesCoins/10R102.5.png","190","test",".","image-keyboard-response","670","471279","0.0-4.0-1.63","true"
"548","ImagesCoins/10L102.5.png","188","test",",","image-keyboard-response","672","472343","0.0-4.0-1.64","true"
"578","ImagesCoins/10L92.5.png","190","test",".","image-keyboard-response","674","473424","0.0-4.0-1.65","true"
"505","ImagesCoins/10L105.png","188","test",",","image-keyboard-response","676","474441","0.0-4.0-1.66","true"
"785","ImagesCoins/10R95.png","190","test",",","image-keyboard-response","678","475740","0.0-4.0-1.67","false"
"619","ImagesCoins/10L107.5.png","188","test",",","image-keyboard-response","680","476875","0.0-4.0-1.68","true"
"725","ImagesCoins/10R105.png","190","test",".","image-keyboard-response","682","478120","0.0-4.0-1.69","true"
"1267","ImagesCoins/10L100.png","190","test",".","image-keyboard-response","684","479901","0.0-4.0-1.70","true"
"741","ImagesCoins/10R100.png","188","test",".","image-keyboard-response","686","481147","0.0-4.0-1.71","false"
"669","ImagesCoins/10L90.png","190","test",".","image-keyboard-response","688","482325","0.0-4.0-1.72","true"
"1119","ImagesCoins/10L97.5.png","190","test",".","image-keyboard-response","690","483954","0.0-4.0-1.73","true"
"590","ImagesCoins/10L102.5.png","188","test",",","image-keyboard-response","692","485056","0.0-4.0-1.74","true"
"608","ImagesCoins/10R107.5.png","190","test",".","image-keyboard-response","694","486173","0.0-4.0-1.75","true"
"766","ImagesCoins/10R95.png","188","test",",","image-keyboard-response","696","487452","0.0-4.0-1.76","true"
"1006","ImagesCoins/10R105.png","190","test",".","image-keyboard-response","698","488972","0.0-4.0-1.77","true"
"815","ImagesCoins/10R110.png","190","test",".","image-keyboard-response","700","490301","0.0-4.0-1.78","true"
"517","ImagesCoins/10L105.png","188","test",",","image-keyboard-response","702","491322","0.0-4.0-1.79","true"
"1178","ImagesCoins/10R102.5.png","190","test",".","image-keyboard-response","704","493003","0.0-4.0-1.80","true"
"1976","ImagesCoins/10L95.png","190","test",".","image-keyboard-response","706","495482","0.0-4.0-1.81","true"
"616","ImagesCoins/10R100.png","190","test",".","image-keyboard-response","708","496602","0.0-4.0-1.82","true"
"571","ImagesCoins/10L110.png","188","test",",","image-keyboard-response","710","497677","0.0-4.0-1.83","true"
"873","ImagesCoins/10R92.5.png","188","test",",","image-keyboard-response","712","499056","0.0-4.0-1.84","true"
"792","ImagesCoins/10L92.5.png","190","test",".","image-keyboard-response","714","500358","0.0-4.0-1.85","true"
"682","ImagesCoins/10R97.5.png","190","test",",","image-keyboard-response","716","501548","0.0-4.0-1.86","false"
"907","ImagesCoins/10L100.png","188","test",".","image-keyboard-response","718","502972","0.0-4.0-1.87","false"
"784","ImagesCoins/10R90.png","188","test",",","image-keyboard-response","720","504269","0.0-4.0-1.88","true"
"841","ImagesCoins/10L107.5.png","188","test",",","image-keyboard-response","722","505627","0.0-4.0-1.89","true"
