"rt","stimulus","key_press","test_part","correct_response","trial_type","trial_index","time_elapsed","internal_node_id","correct"
"18553","ImagesDirect/VL90.png","190","test",".","image-keyboard-response","4","144976","0.0-3.0-1.0","true"
"1767","ImagesSoccer/VL102.5.png","188","test",",","image-keyboard-response","6","147246","0.0-3.0-1.1","true"
"6475","ImagesSoccer/VR90.png","188","test",",","image-keyboard-response","8","154227","0.0-3.0-1.2","true"
"1160","ImagesSoccer/VL92.5.png","190","test",".","image-keyboard-response","10","155889","0.0-3.0-1.3","true"
"1137","ImagesSoccer/VR105.png","190","test",".","image-keyboard-response","12","157531","0.0-3.0-1.4","true"
"1534","ImagesSoccer/VL90.png","190","test",".","image-keyboard-response","14","159570","0.0-3.0-1.5","true"
"1369","ImagesDirect/VL97.5.png","188","test",".","image-keyboard-response","16","161446","0.0-3.0-1.6","false"
"3295","ImagesDirect/VL100.png","188","test",".","image-keyboard-response","18","165246","0.0-3.0-1.7","false"
"1366","ImagesDirect/VL110.png","188","test",",","image-keyboard-response","20","167119","0.0-3.0-1.8","true"
"851","ImagesDirect/VR107.5.png","190","test",".","image-keyboard-response","22","168471","0.0-3.0-1.9","true"
"819","ImagesSoccer/VR107.5.png","190","test",".","image-keyboard-response","24","169795","0.0-3.0-1.10","true"
"681","ImagesTennis/TL95.png","188","test",".","image-keyboard-response","26","170982","0.0-3.0-1.11","false"
"1851","ImagesSoccer/VL107.5.png","188","test",",","image-keyboard-response","28","173338","0.0-3.0-1.12","true"
"2432","ImagesDirect/VL95.png","188","test",".","image-keyboard-response","30","176275","0.0-3.0-1.13","false"
"3714","ImagesTennis/TR102.5.png","190","test",".","image-keyboard-response","32","180496","0.0-3.0-1.14","true"
"985","ImagesDirect/VR110.png","190","test",".","image-keyboard-response","34","181988","0.0-3.0-1.15","true"
"2895","ImagesTennis/TR100.png","190","test",".","image-keyboard-response","36","185388","0.0-3.0-1.16","true"
"2662","ImagesSoccer/VR100.png","190","test",".","image-keyboard-response","38","188555","0.0-3.0-1.17","true"
"1364","ImagesDirect/VR100.png","190","test",".","image-keyboard-response","40","190426","0.0-3.0-1.18","true"
"802","ImagesTennis/TL90.png","190","test",".","image-keyboard-response","42","191733","0.0-3.0-1.19","true"
"753","ImagesDirect/VR105.png","190","test",".","image-keyboard-response","44","192988","0.0-3.0-1.20","true"
"1260","ImagesTennis/TL100.png","190","test",".","image-keyboard-response","46","194753","0.0-3.0-1.21","true"
"2035","ImagesDirect/VR90.png","188","test",",","image-keyboard-response","48","197293","0.0-3.0-1.22","true"
"1105","ImagesDirect/VL105.png","188","test",",","image-keyboard-response","50","198901","0.0-3.0-1.23","true"
"3010","ImagesDirect/VL102.5.png","190","test",",","image-keyboard-response","52","202413","0.0-3.0-1.24","false"
"1406","ImagesTennis/TR97.5.png","188","test",",","image-keyboard-response","54","204324","0.0-3.0-1.25","true"
"1263","ImagesTennis/TR92.5.png","188","test",",","image-keyboard-response","56","206093","0.0-3.0-1.26","true"
"877","ImagesSoccer/VR102.5.png","190","test",".","image-keyboard-response","58","207476","0.0-3.0-1.27","true"
"946","ImagesTennis/TR105.png","190","test",".","image-keyboard-response","60","208928","0.0-3.0-1.28","true"
"1387","ImagesSoccer/VL110.png","188","test",",","image-keyboard-response","62","210818","0.0-3.0-1.29","true"
"1562","ImagesDirect/VL92.5.png","190","test",".","image-keyboard-response","64","212885","0.0-3.0-1.30","true"
"1142","ImagesTennis/TR107.5.png","190","test",".","image-keyboard-response","66","214530","0.0-3.0-1.31","true"
"1827","ImagesDirect/VR95.png","190","test",",","image-keyboard-response","68","216861","0.0-3.0-1.32","false"
"939","ImagesSoccer/VL97.5.png","188","test",".","image-keyboard-response","70","218306","0.0-3.0-1.33","false"
"696","ImagesTennis/TL102.5.png","188","test",",","image-keyboard-response","72","219508","0.0-3.0-1.34","true"
"1701","ImagesSoccer/VR92.5.png","188","test",",","image-keyboard-response","74","221712","0.0-3.0-1.35","true"
"727","ImagesSoccer/VR95.png","190","test",",","image-keyboard-response","76","222944","0.0-3.0-1.36","false"
"889","ImagesTennis/TR90.png","188","test",",","image-keyboard-response","78","224338","0.0-3.0-1.37","true"
"956","ImagesSoccer/VL95.png","190","test",".","image-keyboard-response","80","225800","0.0-3.0-1.38","true"
"1343","ImagesSoccer/VR97.5.png","190","test",",","image-keyboard-response","82","227644","0.0-3.0-1.39","false"
"918","ImagesSoccer/VL100.png","188","test",".","image-keyboard-response","84","229067","0.0-3.0-1.40","false"
"1376","ImagesTennis/TL110.png","188","test",",","image-keyboard-response","86","230945","0.0-3.0-1.41","true"
"594","ImagesTennis/TL105.png","190","test",",","image-keyboard-response","88","232044","0.0-3.0-1.42","false"
"536","ImagesTennis/TL92.5.png","190","test",".","image-keyboard-response","90","233085","0.0-3.0-1.43","true"
"425","ImagesTennis/TL97.5.png","190","test",".","image-keyboard-response","92","234016","0.0-3.0-1.44","true"
"799","ImagesSoccer/VL105.png","188","test",",","image-keyboard-response","94","235321","0.0-3.0-1.45","true"
"1637","ImagesDirect/VR97.5.png","188","test",",","image-keyboard-response","96","237464","0.0-3.0-1.46","true"
"739","ImagesDirect/VR92.5.png","188","test",",","image-keyboard-response","98","238705","0.0-3.0-1.47","true"
"764","ImagesSoccer/VR110.png","190","test",".","image-keyboard-response","100","239975","0.0-3.0-1.48","true"
"924","ImagesDirect/VL107.5.png","190","test",",","image-keyboard-response","102","241404","0.0-3.0-1.49","false"
"725","ImagesTennis/TL107.5.png","188","test",",","image-keyboard-response","104","242633","0.0-3.0-1.50","true"
"1060","ImagesTennis/TR110.png","190","test",".","image-keyboard-response","106","244200","0.0-3.0-1.51","true"
"880","ImagesTennis/TR95.png","188","test",",","image-keyboard-response","108","245585","0.0-3.0-1.52","true"
"976","ImagesDirect/VR102.5.png","190","test",".","image-keyboard-response","110","247066","0.0-3.0-1.53","true"
"1109","ImagesSoccer/VR92.5.png","188","test",",","image-keyboard-response","112","248681","0.0-3.0-1.54","true"
"873","ImagesDirect/VR97.5.png","190","test",",","image-keyboard-response","114","250060","0.0-3.0-1.55","false"
"2730","ImagesTennis/TR102.5.png","190","test",".","image-keyboard-response","116","253295","0.0-3.0-1.56","true"
"1043","ImagesSoccer/VR102.5.png","188","test",".","image-keyboard-response","118","254840","0.0-3.0-1.57","false"
"465","ImagesDirect/VL102.5.png","190","test",",","image-keyboard-response","120","255812","0.0-3.0-1.58","false"
"959","ImagesSoccer/VR110.png","190","test",".","image-keyboard-response","122","257273","0.0-3.0-1.59","true"
"1305","ImagesTennis/TL100.png","190","test",".","image-keyboard-response","124","259083","0.0-3.0-1.60","true"
"1081","ImagesSoccer/VL110.png","188","test",",","image-keyboard-response","126","260667","0.0-3.0-1.61","true"
"631","ImagesTennis/TR110.png","190","test",".","image-keyboard-response","128","261805","0.0-3.0-1.62","true"
"1149","ImagesTennis/TR95.png","188","test",",","image-keyboard-response","130","263459","0.0-3.0-1.63","true"
"732","ImagesTennis/TL90.png","190","test",".","image-keyboard-response","132","264693","0.0-3.0-1.64","true"
"814","ImagesSoccer/VL95.png","190","test",".","image-keyboard-response","134","266011","0.0-3.0-1.65","true"
"687","ImagesDirect/VR110.png","190","test",".","image-keyboard-response","136","267202","0.0-3.0-1.66","true"
"1275","ImagesTennis/TR97.5.png","190","test",",","image-keyboard-response","138","268980","0.0-3.0-1.67","false"
"2656","ImagesDirect/VL110.png","188","test",",","image-keyboard-response","140","272138","0.0-3.0-1.68","true"
"927","ImagesSoccer/VL102.5.png","190","test",",","image-keyboard-response","142","273572","0.0-3.0-1.69","false"
"1016","ImagesTennis/TL102.5.png","188","test",",","image-keyboard-response","144","275095","0.0-3.0-1.70","true"
"538","ImagesTennis/TL110.png","190","test",",","image-keyboard-response","146","276134","0.0-3.0-1.71","false"
"1082","ImagesDirect/VR105.png","190","test",".","image-keyboard-response","148","277719","0.0-3.0-1.72","true"
"878","ImagesDirect/VL95.png","190","test",".","image-keyboard-response","150","279101","0.0-3.0-1.73","true"
"601","ImagesTennis/TL97.5.png","190","test",".","image-keyboard-response","152","280208","0.0-3.0-1.74","true"
"900","ImagesDirect/VR95.png","188","test",",","image-keyboard-response","154","281613","0.0-3.0-1.75","true"
"1153","ImagesTennis/TR92.5.png","190","test",",","image-keyboard-response","156","283273","0.0-3.0-1.76","false"
"1693","ImagesSoccer/VL107.5.png","188","test",",","image-keyboard-response","158","285469","0.0-3.0-1.77","true"
"1061","ImagesDirect/VR90.png","190","test",",","image-keyboard-response","160","287035","0.0-3.0-1.78","false"
"983","ImagesDirect/VL100.png","188","test",".","image-keyboard-response","162","288524","0.0-3.0-1.79","false"
"844","ImagesTennis/TR107.5.png","190","test",".","image-keyboard-response","164","289874","0.0-3.0-1.80","true"
"695","ImagesTennis/TL107.5.png","188","test",",","image-keyboard-response","166","291074","0.0-3.0-1.81","true"
"866","ImagesSoccer/VR107.5.png","190","test",".","image-keyboard-response","168","292443","0.0-3.0-1.82","true"
"944","ImagesSoccer/VR100.png","188","test",".","image-keyboard-response","170","293889","0.0-3.0-1.83","false"
"427","ImagesSoccer/VR95.png","190","test",",","image-keyboard-response","172","294818","0.0-3.0-1.84","false"
"776","ImagesSoccer/VL97.5.png","190","test",".","image-keyboard-response","174","296097","0.0-3.0-1.85","true"
"1676","ImagesDirect/VL97.5.png","188","test",".","image-keyboard-response","176","298275","0.0-3.0-1.86","false"
"1001","ImagesDirect/VR100.png","190","test",".","image-keyboard-response","178","299782","0.0-3.0-1.87","true"
"789","ImagesTennis/TR100.png","188","test",".","image-keyboard-response","180","301077","0.0-3.0-1.88","false"
"676","ImagesDirect/VR107.5.png","190","test",".","image-keyboard-response","182","302256","0.0-3.0-1.89","true"
"807","ImagesDirect/VL105.png","188","test",",","image-keyboard-response","184","303568","0.0-3.0-1.90","true"
"973","ImagesTennis/TL92.5.png","190","test",".","image-keyboard-response","186","305047","0.0-3.0-1.91","true"
"739","ImagesDirect/VR102.5.png","190","test",".","image-keyboard-response","188","306288","0.0-3.0-1.92","true"
"655","ImagesTennis/TR90.png","188","test",",","image-keyboard-response","190","307446","0.0-3.0-1.93","true"
"1049","ImagesSoccer/VR90.png","188","test",",","image-keyboard-response","192","309002","0.0-3.0-1.94","true"
"946","ImagesDirect/VL90.png","190","test",".","image-keyboard-response","194","310452","0.0-3.0-1.95","true"
"1199","ImagesTennis/TR105.png","190","test",".","image-keyboard-response","196","312156","0.0-3.0-1.96","true"
"845","ImagesDirect/VL107.5.png","188","test",",","image-keyboard-response","198","313506","0.0-3.0-1.97","true"
"894","ImagesDirect/VL92.5.png","190","test",".","image-keyboard-response","200","314904","0.0-3.0-1.98","true"
"616","ImagesSoccer/VL100.png","188","test",".","image-keyboard-response","202","316022","0.0-3.0-1.99","false"
"704","ImagesSoccer/VL92.5.png","190","test",".","image-keyboard-response","204","317232","0.0-3.0-1.100","true"
"2028","ImagesDirect/VR92.5.png","190","test",",","image-keyboard-response","206","319765","0.0-3.0-1.101","false"
"1272","ImagesSoccer/VL105.png","190","test",",","image-keyboard-response","208","321542","0.0-3.0-1.102","false"
"661","ImagesTennis/TL95.png","190","test",".","image-keyboard-response","210","322705","0.0-3.0-1.103","true"
"626","ImagesSoccer/VR97.5.png","188","test",",","image-keyboard-response","212","323837","0.0-3.0-1.104","true"
"1577","ImagesSoccer/VL90.png","190","test",".","image-keyboard-response","214","325920","0.0-3.0-1.105","true"
"1039","ImagesTennis/TL105.png","188","test",",","image-keyboard-response","216","327462","0.0-3.0-1.106","true"
"1064","ImagesSoccer/VR105.png","190","test",".","image-keyboard-response","218","329032","0.0-3.0-1.107","true"
"930","ImagesTennis/TL97.5.png","190","test",".","image-keyboard-response","220","330468","0.0-3.0-1.108","true"
"1202","ImagesDirect/VR107.5.png","190","test",".","image-keyboard-response","222","332176","0.0-3.0-1.109","true"
"578","ImagesTennis/TR90.png","188","test",",","image-keyboard-response","224","333260","0.0-3.0-1.110","true"
"835","ImagesSoccer/VL97.5.png","190","test",".","image-keyboard-response","226","334601","0.0-3.0-1.111","true"
"667","ImagesSoccer/VL90.png","190","test",".","image-keyboard-response","228","335774","0.0-3.0-1.112","true"
"1458","ImagesTennis/TR100.png","190","test",".","image-keyboard-response","230","337734","0.0-3.0-1.113","true"
"580","ImagesTennis/TR92.5.png","188","test",",","image-keyboard-response","232","338820","0.0-3.0-1.114","true"
"727","ImagesTennis/TL100.png","190","test",".","image-keyboard-response","234","340050","0.0-3.0-1.115","true"
"1613","ImagesDirect/VL90.png","190","test",".","image-keyboard-response","236","342165","0.0-3.0-1.116","true"
"838","ImagesTennis/TL110.png","190","test",",","image-keyboard-response","238","343507","0.0-3.0-1.117","false"
"769","ImagesSoccer/VL107.5.png","188","test",",","image-keyboard-response","240","344779","0.0-3.0-1.118","true"
"1182","ImagesDirect/VR100.png","190","test",".","image-keyboard-response","242","346467","0.0-3.0-1.119","true"
"507","ImagesSoccer/VL110.png","188","test",",","image-keyboard-response","244","347480","0.0-3.0-1.120","true"
"1092","ImagesTennis/TR102.5.png","188","test",".","image-keyboard-response","246","349074","0.0-3.0-1.121","false"
"1083","ImagesTennis/TR110.png","190","test",".","image-keyboard-response","248","350659","0.0-3.0-1.122","true"
"746","ImagesSoccer/VR110.png","190","test",".","image-keyboard-response","250","351907","0.0-3.0-1.123","true"
"646","ImagesSoccer/VR102.5.png","190","test",".","image-keyboard-response","252","353055","0.0-3.0-1.124","true"
"717","ImagesTennis/TL105.png","188","test",",","image-keyboard-response","254","354275","0.0-3.0-1.125","true"
"1004","ImagesSoccer/VL92.5.png","190","test",".","image-keyboard-response","256","355785","0.0-3.0-1.126","true"
"667","ImagesTennis/TL92.5.png","190","test",".","image-keyboard-response","258","356958","0.0-3.0-1.127","true"
"653","ImagesSoccer/VR95.png","188","test",",","image-keyboard-response","260","358115","0.0-3.0-1.128","true"
"1910","ImagesSoccer/VL105.png","190","test",",","image-keyboard-response","262","360530","0.0-3.0-1.129","false"
"501","ImagesSoccer/VR107.5.png","190","test",".","image-keyboard-response","264","361537","0.0-3.0-1.130","true"
"1318","ImagesSoccer/VR105.png","188","test",".","image-keyboard-response","266","363359","0.0-3.0-1.131","false"
"704","ImagesTennis/TR97.5.png","190","test",",","image-keyboard-response","268","364569","0.0-3.0-1.132","false"
"868","ImagesDirect/VR102.5.png","190","test",".","image-keyboard-response","270","365939","0.0-3.0-1.133","true"
"730","ImagesDirect/VL92.5.png","188","test",".","image-keyboard-response","272","367171","0.0-3.0-1.134","false"
"852","ImagesDirect/VR90.png","190","test",",","image-keyboard-response","274","368526","0.0-3.0-1.135","false"
"590","ImagesSoccer/VR92.5.png","190","test",",","image-keyboard-response","276","369622","0.0-3.0-1.136","false"
"831","ImagesTennis/TL107.5.png","190","test",",","image-keyboard-response","278","370955","0.0-3.0-1.137","false"
"1873","ImagesSoccer/VL100.png","190","test",".","image-keyboard-response","280","373330","0.0-3.0-1.138","true"
"1454","ImagesDirect/VR95.png","190","test",",","image-keyboard-response","282","375289","0.0-3.0-1.139","false"
"854","ImagesTennis/TL90.png","190","test",".","image-keyboard-response","284","376645","0.0-3.0-1.140","true"
"505","ImagesDirect/VL95.png","190","test",".","image-keyboard-response","286","377652","0.0-3.0-1.141","true"
"795","ImagesDirect/VR92.5.png","190","test",",","image-keyboard-response","288","378949","0.0-3.0-1.142","false"
"7325","ImagesDirect/VR105.png","190","test",".","image-keyboard-response","290","386781","0.0-3.0-1.143","true"
"585","ImagesDirect/VL102.5.png","188","test",",","image-keyboard-response","292","387869","0.0-3.0-1.144","true"
"470","ImagesDirect/VR97.5.png","190","test",",","image-keyboard-response","294","388843","0.0-3.0-1.145","false"
"677","ImagesSoccer/VL95.png","188","test",".","image-keyboard-response","296","390026","0.0-3.0-1.146","false"
"889","ImagesSoccer/VR100.png","190","test",".","image-keyboard-response","298","391422","0.0-3.0-1.147","true"
"680","ImagesTennis/TR107.5.png","190","test",".","image-keyboard-response","300","392604","0.0-3.0-1.148","true"
"677","ImagesDirect/VL97.5.png","188","test",".","image-keyboard-response","302","393783","0.0-3.0-1.149","false"
"531","ImagesTennis/TL102.5.png","190","test",",","image-keyboard-response","304","394820","0.0-3.0-1.150","false"
"1311","ImagesTennis/TL95.png","190","test",".","image-keyboard-response","306","396634","0.0-3.0-1.151","true"
"728","ImagesSoccer/VR90.png","188","test",",","image-keyboard-response","308","397868","0.0-3.0-1.152","true"
"487","ImagesSoccer/VL102.5.png","188","test",",","image-keyboard-response","310","398860","0.0-3.0-1.153","true"
"734","ImagesDirect/VL110.png","188","test",",","image-keyboard-response","312","400098","0.0-3.0-1.154","true"
"759","ImagesDirect/VL107.5.png","188","test",",","image-keyboard-response","314","401358","0.0-3.0-1.155","true"
"398","ImagesTennis/TR95.png","188","test",",","image-keyboard-response","316","402258","0.0-3.0-1.156","true"
"426","ImagesDirect/VR110.png","190","test",".","image-keyboard-response","318","403190","0.0-3.0-1.157","true"
"690","ImagesTennis/TR105.png","190","test",".","image-keyboard-response","320","404382","0.0-3.0-1.158","true"
"802","ImagesDirect/VL100.png","190","test",".","image-keyboard-response","322","405687","0.0-3.0-1.159","true"
"804","ImagesSoccer/VR97.5.png","188","test",",","image-keyboard-response","324","406994","0.0-3.0-1.160","true"
"513","ImagesDirect/VL105.png","188","test",",","image-keyboard-response","326","408008","0.0-3.0-1.161","true"
"853","ImagesTennis/TR95.png","188","test",",","image-keyboard-response","328","409367","0.0-3.0-1.162","true"
"1125","ImagesSoccer/VR92.5.png","188","test",",","image-keyboard-response","330","410998","0.0-3.0-1.163","true"
"1454","ImagesTennis/TL110.png","188","test",",","image-keyboard-response","332","412955","0.0-3.0-1.164","true"
"1365","ImagesTennis/TR97.5.png","190","test",",","image-keyboard-response","334","414826","0.0-3.0-1.165","false"
"710","ImagesSoccer/VL90.png","190","test",".","image-keyboard-response","336","416042","0.0-3.0-1.166","true"
"1041","ImagesDirect/VL97.5.png","188","test",".","image-keyboard-response","338","417586","0.0-3.0-1.167","false"
"1066","ImagesSoccer/VL107.5.png","188","test",",","image-keyboard-response","340","419154","0.0-3.0-1.168","true"
"610","ImagesSoccer/VR107.5.png","190","test",".","image-keyboard-response","342","420266","0.0-3.0-1.169","true"
"1409","ImagesDirect/VR97.5.png","188","test",",","image-keyboard-response","344","422180","0.0-3.0-1.170","true"
"1098","ImagesDirect/VR100.png","190","test",".","image-keyboard-response","346","423782","0.0-3.0-1.171","true"
"1453","ImagesSoccer/VR105.png","190","test",".","image-keyboard-response","348","425737","0.0-3.0-1.172","true"
"1807","ImagesDirect/VL105.png","188","test",",","image-keyboard-response","350","428047","0.0-3.0-1.173","true"
"2007","ImagesSoccer/VR102.5.png","190","test",".","image-keyboard-response","352","430560","0.0-3.0-1.174","true"
"1253","ImagesDirect/VL95.png","190","test",".","image-keyboard-response","354","432320","0.0-3.0-1.175","true"
"1441","ImagesDirect/VR90.png","188","test",",","image-keyboard-response","356","434268","0.0-3.0-1.176","true"
"859","ImagesSoccer/VR97.5.png","188","test",",","image-keyboard-response","358","435630","0.0-3.0-1.177","true"
"1401","ImagesSoccer/VL102.5.png","188","test",",","image-keyboard-response","360","437536","0.0-3.0-1.178","true"
"1684","ImagesSoccer/VR95.png","188","test",",","image-keyboard-response","362","439727","0.0-3.0-1.179","true"
"727","ImagesSoccer/VL95.png","190","test",".","image-keyboard-response","364","440961","0.0-3.0-1.180","true"
"1199","ImagesDirect/VL90.png","190","test",".","image-keyboard-response","366","442666","0.0-3.0-1.181","true"
"1251","ImagesDirect/VR105.png","190","test",".","image-keyboard-response","368","444421","0.0-3.0-1.182","true"
"1171","ImagesTennis/TR100.png","188","test",".","image-keyboard-response","370","446098","0.0-3.0-1.183","false"
"2123","ImagesTennis/TL105.png","190","test",",","image-keyboard-response","372","448727","0.0-3.0-1.184","false"
"708","ImagesSoccer/VL110.png","188","test",",","image-keyboard-response","374","449941","0.0-3.0-1.185","true"
"753","ImagesSoccer/VL105.png","190","test",",","image-keyboard-response","376","451200","0.0-3.0-1.186","false"
"742","ImagesDirect/VR102.5.png","188","test",".","image-keyboard-response","378","452445","0.0-3.0-1.187","false"
"742","ImagesDirect/VR95.png","188","test",",","image-keyboard-response","380","453692","0.0-3.0-1.188","true"
"412","ImagesDirect/VL100.png","190","test",".","image-keyboard-response","382","454610","0.0-3.0-1.189","true"
"849","ImagesSoccer/VL100.png","190","test",".","image-keyboard-response","384","455965","0.0-3.0-1.190","true"
"780","ImagesSoccer/VR90.png","188","test",",","image-keyboard-response","386","457249","0.0-3.0-1.191","true"
"729","ImagesDirect/VL102.5.png","190","test",",","image-keyboard-response","388","458481","0.0-3.0-1.192","false"
"672","ImagesTennis/TL92.5.png","190","test",".","image-keyboard-response","390","459657","0.0-3.0-1.193","true"
"694","ImagesTennis/TL107.5.png","190","test",",","image-keyboard-response","392","460857","0.0-3.0-1.194","false"
"764","ImagesDirect/VR92.5.png","188","test",",","image-keyboard-response","394","462125","0.0-3.0-1.195","true"
"1099","ImagesTennis/TR107.5.png","190","test",".","image-keyboard-response","396","463727","0.0-3.0-1.196","true"
"608","ImagesDirect/VL107.5.png","188","test",",","image-keyboard-response","398","464840","0.0-3.0-1.197","true"
"742","ImagesSoccer/VL97.5.png","190","test",".","image-keyboard-response","400","466088","0.0-3.0-1.198","true"
"511","ImagesTennis/TR105.png","190","test",".","image-keyboard-response","402","467105","0.0-3.0-1.199","true"
"391","ImagesDirect/VR107.5.png","190","test",".","image-keyboard-response","404","468002","0.0-3.0-1.200","true"
"688","ImagesTennis/TL97.5.png","188","test",".","image-keyboard-response","406","469197","0.0-3.0-1.201","false"
"673","ImagesSoccer/VL92.5.png","190","test",".","image-keyboard-response","408","470374","0.0-3.0-1.202","true"
"433","ImagesSoccer/VR100.png","190","test",".","image-keyboard-response","410","471310","0.0-3.0-1.203","true"
"580","ImagesTennis/TR110.png","190","test",".","image-keyboard-response","412","472395","0.0-3.0-1.204","true"
"572","ImagesTennis/TL100.png","190","test",".","image-keyboard-response","414","473469","0.0-3.0-1.205","true"
"549","ImagesTennis/TR92.5.png","190","test",",","image-keyboard-response","416","474520","0.0-3.0-1.206","false"
"693","ImagesSoccer/VR110.png","188","test",".","image-keyboard-response","418","475719","0.0-3.0-1.207","false"
"1102","ImagesTennis/TL90.png","190","test",".","image-keyboard-response","420","477328","0.0-3.0-1.208","true"
"658","ImagesDirect/VL92.5.png","190","test",".","image-keyboard-response","422","478493","0.0-3.0-1.209","true"
"415","ImagesDirect/VL110.png","190","test",",","image-keyboard-response","424","479410","0.0-3.0-1.210","false"
"556","ImagesTennis/TR102.5.png","190","test",".","image-keyboard-response","426","480472","0.0-3.0-1.211","true"
"451","ImagesTennis/TL95.png","190","test",".","image-keyboard-response","428","481429","0.0-3.0-1.212","true"
"406","ImagesTennis/TL102.5.png","190","test",",","image-keyboard-response","430","482340","0.0-3.0-1.213","false"
"271","ImagesDirect/VR110.png","190","test",".","image-keyboard-response","432","483118","0.0-3.0-1.214","true"
"807","ImagesTennis/TR90.png","190","test",",","image-keyboard-response","434","484430","0.0-3.0-1.215","false"
"673","ImagesSoccer/VR90.png","188","test",",","image-keyboard-response","436","485608","0.0-3.0-1.216","true"
"925","ImagesTennis/TL102.5.png","188","test",",","image-keyboard-response","438","487039","0.0-3.0-1.217","true"
"623","ImagesSoccer/VR92.5.png","190","test",",","image-keyboard-response","440","488168","0.0-3.0-1.218","false"
"733","ImagesSoccer/VL105.png","190","test",",","image-keyboard-response","442","489407","0.0-3.0-1.219","false"
"1046","ImagesDirect/VL105.png","188","test",",","image-keyboard-response","444","490955","0.0-3.0-1.220","true"
"1422","ImagesTennis/TR107.5.png","190","test",".","image-keyboard-response","446","492884","0.0-3.0-1.221","true"
"579","ImagesSoccer/VL110.png","188","test",",","image-keyboard-response","448","493969","0.0-3.0-1.222","true"
"533","ImagesDirect/VR105.png","190","test",".","image-keyboard-response","450","495004","0.0-3.0-1.223","true"
"1073","ImagesDirect/VL95.png","190","test",".","image-keyboard-response","452","496579","0.0-3.0-1.224","true"
"1773","ImagesDirect/VR102.5.png","190","test",".","image-keyboard-response","454","498856","0.0-3.0-1.225","true"
"1082","ImagesSoccer/VR110.png","190","test",".","image-keyboard-response","456","500445","0.0-3.0-1.226","true"
"1066","ImagesSoccer/VL90.png","190","test",".","image-keyboard-response","458","502015","0.0-3.0-1.227","true"
"567","ImagesTennis/TR100.png","188","test",".","image-keyboard-response","460","503084","0.0-3.0-1.228","false"
"696","ImagesTennis/TL97.5.png","190","test",".","image-keyboard-response","462","504285","0.0-3.0-1.229","true"
"889","ImagesDirect/VL97.5.png","188","test",".","image-keyboard-response","464","505680","0.0-3.0-1.230","false"
"814","ImagesSoccer/VR107.5.png","190","test",".","image-keyboard-response","466","506998","0.0-3.0-1.231","true"
"835","ImagesDirect/VR97.5.png","188","test",",","image-keyboard-response","468","508336","0.0-3.0-1.232","true"
"1572","ImagesDirect/VL92.5.png","190","test",".","image-keyboard-response","470","510413","0.0-3.0-1.233","true"
"703","ImagesTennis/TR92.5.png","188","test",",","image-keyboard-response","472","511618","0.0-3.0-1.234","true"
"571","ImagesTennis/TL92.5.png","190","test",".","image-keyboard-response","474","512695","0.0-3.0-1.235","true"
"710","ImagesDirect/VR92.5.png","188","test",",","image-keyboard-response","476","513909","0.0-3.0-1.236","true"
"1685","ImagesDirect/VR90.png","188","test",",","image-keyboard-response","478","516099","0.0-3.0-1.237","true"
"576","ImagesDirect/VL100.png","190","test",".","image-keyboard-response","480","517177","0.0-3.0-1.238","true"
"501","ImagesDirect/VL110.png","188","test",",","image-keyboard-response","482","518183","0.0-3.0-1.239","true"
"561","ImagesTennis/TL90.png","190","test",".","image-keyboard-response","484","519251","0.0-3.0-1.240","true"
"1224","ImagesSoccer/VL95.png","190","test",".","image-keyboard-response","486","520981","0.0-3.0-1.241","true"
"542","ImagesSoccer/VL97.5.png","190","test",".","image-keyboard-response","488","522026","0.0-3.0-1.242","true"
"478","ImagesTennis/TR105.png","190","test",".","image-keyboard-response","490","523008","0.0-3.0-1.243","true"
"341","ImagesTennis/TL100.png","188","test",".","image-keyboard-response","492","523856","0.0-3.0-1.244","false"
"561","ImagesTennis/TR90.png","188","test",",","image-keyboard-response","494","524923","0.0-3.0-1.245","true"
"1041","ImagesSoccer/VR102.5.png","190","test",".","image-keyboard-response","496","526470","0.0-3.0-1.246","true"
"783","ImagesTennis/TL107.5.png","188","test",",","image-keyboard-response","498","527757","0.0-3.0-1.247","true"
"481","ImagesTennis/TL95.png","188","test",".","image-keyboard-response","500","528745","0.0-3.0-1.248","false"
"707","ImagesDirect/VR95.png","190","test",",","image-keyboard-response","502","529958","0.0-3.0-1.249","false"
"417","ImagesDirect/VR107.5.png","190","test",".","image-keyboard-response","504","530881","0.0-3.0-1.250","true"
"585","ImagesTennis/TR95.png","188","test",",","image-keyboard-response","506","531970","0.0-3.0-1.251","true"
"631","ImagesSoccer/VL100.png","190","test",".","image-keyboard-response","508","533107","0.0-3.0-1.252","true"
"417","ImagesSoccer/VL92.5.png","190","test",".","image-keyboard-response","510","534030","0.0-3.0-1.253","true"
"427","ImagesSoccer/VL107.5.png","190","test",",","image-keyboard-response","512","534960","0.0-3.0-1.254","false"
"526","ImagesTennis/TL110.png","190","test",",","image-keyboard-response","514","535992","0.0-3.0-1.255","false"
"1023","ImagesSoccer/VL102.5.png","190","test",",","image-keyboard-response","516","537521","0.0-3.0-1.256","false"
"8645","ImagesDirect/VR100.png","190","test",".","image-keyboard-response","518","546671","0.0-3.0-1.257","true"
"472","ImagesSoccer/VR100.png","190","test",".","image-keyboard-response","520","547651","0.0-3.0-1.258","true"
"1382","ImagesTennis/TR102.5.png","188","test",".","image-keyboard-response","522","549536","0.0-3.0-1.259","false"
"383","ImagesSoccer/VR105.png","190","test",".","image-keyboard-response","524","550426","0.0-3.0-1.260","true"
"608","ImagesDirect/VL90.png","190","test",".","image-keyboard-response","526","551538","0.0-3.0-1.261","true"
"413","ImagesTennis/TR97.5.png","190","test",",","image-keyboard-response","528","552457","0.0-3.0-1.262","false"
"376","ImagesDirect/VL107.5.png","190","test",",","image-keyboard-response","530","553339","0.0-3.0-1.263","false"
"455","ImagesSoccer/VR97.5.png","190","test",",","image-keyboard-response","532","554296","0.0-3.0-1.264","false"
"428","ImagesTennis/TL105.png","190","test",",","image-keyboard-response","534","555230","0.0-3.0-1.265","false"
"442","ImagesDirect/VR110.png","190","test",".","image-keyboard-response","536","556179","0.0-3.0-1.266","true"
"953","ImagesSoccer/VR95.png","188","test",",","image-keyboard-response","538","557635","0.0-3.0-1.267","true"
"365","ImagesDirect/VL102.5.png","190","test",",","image-keyboard-response","540","558501","0.0-3.0-1.268","false"
"405","ImagesTennis/TR110.png","188","test",".","image-keyboard-response","542","559412","0.0-3.0-1.269","false"
"338","ImagesCoins/10L97.5.png","190","test",".","image-keyboard-response","544","560252","0.0-4.0-1.0","true"
"1496","ImagesCoins/10R90.png","188","test",",","image-keyboard-response","546","562254","0.0-4.0-1.1","true"
"2059","ImagesCoins/10R95.png","190","test",",","image-keyboard-response","548","564815","0.0-4.0-1.2","false"
"848","ImagesCoins/10L90.png","190","test",".","image-keyboard-response","550","566168","0.0-4.0-1.3","true"
"1129","ImagesCoins/10L110.png","188","test",",","image-keyboard-response","552","567803","0.0-4.0-1.4","true"
"1122","ImagesCoins/10R107.5.png","190","test",".","image-keyboard-response","554","569428","0.0-4.0-1.5","true"
"1145","ImagesCoins/10L95.png","190","test",".","image-keyboard-response","556","571076","0.0-4.0-1.6","true"
"1864","ImagesCoins/10R105.png","190","test",".","image-keyboard-response","558","573443","0.0-4.0-1.7","true"
"1135","ImagesCoins/10L105.png","188","test",",","image-keyboard-response","560","575080","0.0-4.0-1.8","true"
"1231","ImagesCoins/10L107.5.png","188","test",",","image-keyboard-response","562","576813","0.0-4.0-1.9","true"
"1703","ImagesCoins/10R102.5.png","190","test",".","image-keyboard-response","564","579020","0.0-4.0-1.10","true"
"1179","ImagesCoins/10R92.5.png","188","test",",","image-keyboard-response","566","580705","0.0-4.0-1.11","true"
"820","ImagesCoins/10R110.png","190","test",".","image-keyboard-response","568","582026","0.0-4.0-1.12","true"
"1255","ImagesCoins/10L92.5.png","190","test",".","image-keyboard-response","570","583786","0.0-4.0-1.13","true"
"1182","ImagesCoins/10R100.png","190","test",".","image-keyboard-response","572","585471","0.0-4.0-1.14","true"
"1443","ImagesCoins/10L102.5.png","188","test",",","image-keyboard-response","574","587419","0.0-4.0-1.15","true"
"833","ImagesCoins/10L100.png","190","test",".","image-keyboard-response","576","588758","0.0-4.0-1.16","true"
"890","ImagesCoins/10R97.5.png","188","test",",","image-keyboard-response","578","590151","0.0-4.0-1.17","true"
"1275","ImagesCoins/10L95.png","190","test",".","image-keyboard-response","580","591933","0.0-4.0-1.18","true"
"1184","ImagesCoins/10R90.png","188","test",",","image-keyboard-response","582","593622","0.0-4.0-1.19","true"
"768","ImagesCoins/10R105.png","190","test",".","image-keyboard-response","584","594896","0.0-4.0-1.20","true"
"830","ImagesCoins/10L102.5.png","188","test",",","image-keyboard-response","586","596232","0.0-4.0-1.21","true"
"590","ImagesCoins/10R107.5.png","190","test",".","image-keyboard-response","588","597328","0.0-4.0-1.22","true"
"882","ImagesCoins/10L90.png","190","test",".","image-keyboard-response","590","598715","0.0-4.0-1.23","true"
"678","ImagesCoins/10L110.png","188","test",",","image-keyboard-response","592","599896","0.0-4.0-1.24","true"
"1060","ImagesCoins/10R102.5.png","190","test",".","image-keyboard-response","594","601461","0.0-4.0-1.25","true"
"775","ImagesCoins/10L92.5.png","190","test",".","image-keyboard-response","596","602743","0.0-4.0-1.26","true"
"1444","ImagesCoins/10R97.5.png","188","test",",","image-keyboard-response","598","604691","0.0-4.0-1.27","true"
"680","ImagesCoins/10R95.png","190","test",",","image-keyboard-response","600","605876","0.0-4.0-1.28","false"
"1495","ImagesCoins/10R110.png","190","test",".","image-keyboard-response","602","607873","0.0-4.0-1.29","true"
"1012","ImagesCoins/10L105.png","188","test",",","image-keyboard-response","604","609389","0.0-4.0-1.30","true"
"1093","ImagesCoins/10R92.5.png","188","test",",","image-keyboard-response","606","610986","0.0-4.0-1.31","true"
"500","ImagesCoins/10L107.5.png","190","test",",","image-keyboard-response","608","611993","0.0-4.0-1.32","false"
"547","ImagesCoins/10R100.png","188","test",".","image-keyboard-response","610","613043","0.0-4.0-1.33","false"
"241","ImagesCoins/10L100.png","190","test",".","image-keyboard-response","612","613787","0.0-4.0-1.34","true"
"16069","ImagesCoins/10L97.5.png","190","test",".","image-keyboard-response","614","630359","0.0-4.0-1.35","true"
"899","ImagesCoins/10R105.png","190","test",".","image-keyboard-response","616","631765","0.0-4.0-1.36","true"
"687","ImagesCoins/10R107.5.png","190","test",".","image-keyboard-response","618","632956","0.0-4.0-1.37","true"
"489","ImagesCoins/10R102.5.png","190","test",".","image-keyboard-response","620","633951","0.0-4.0-1.38","true"
"745","ImagesCoins/10L107.5.png","190","test",",","image-keyboard-response","622","635202","0.0-4.0-1.39","false"
"708","ImagesCoins/10L92.5.png","190","test",".","image-keyboard-response","624","636413","0.0-4.0-1.40","true"
"636","ImagesCoins/10L100.png","190","test",".","image-keyboard-response","626","637554","0.0-4.0-1.41","true"
"815","ImagesCoins/10R90.png","188","test",",","image-keyboard-response","628","638874","0.0-4.0-1.42","true"
"678","ImagesCoins/10R97.5.png","190","test",",","image-keyboard-response","630","640054","0.0-4.0-1.43","false"
"534","ImagesCoins/10L90.png","190","test",".","image-keyboard-response","632","641093","0.0-4.0-1.44","true"
"595","ImagesCoins/10L95.png","190","test",".","image-keyboard-response","634","642190","0.0-4.0-1.45","true"
"465","ImagesCoins/10R110.png","190","test",".","image-keyboard-response","636","643158","0.0-4.0-1.46","true"
"677","ImagesCoins/10L97.5.png","188","test",".","image-keyboard-response","638","644341","0.0-4.0-1.47","false"
"544","ImagesCoins/10R100.png","190","test",".","image-keyboard-response","640","645386","0.0-4.0-1.48","true"
"1911","ImagesCoins/10R95.png","188","test",",","image-keyboard-response","642","647802","0.0-4.0-1.49","true"
"874","ImagesCoins/10R92.5.png","188","test",",","image-keyboard-response","644","649183","0.0-4.0-1.50","true"
"468","ImagesCoins/10L102.5.png","190","test",",","image-keyboard-response","646","650154","0.0-4.0-1.51","false"
"477","ImagesCoins/10L105.png","190","test",",","image-keyboard-response","648","651134","0.0-4.0-1.52","false"
"479","ImagesCoins/10L110.png","188","test",",","image-keyboard-response","650","652117","0.0-4.0-1.53","true"
"864","ImagesCoins/10R90.png","188","test",",","image-keyboard-response","652","653484","0.0-4.0-1.54","true"
"591","ImagesCoins/10L97.5.png","190","test",".","image-keyboard-response","654","654577","0.0-4.0-1.55","true"
"482","ImagesCoins/10R110.png","190","test",".","image-keyboard-response","656","655562","0.0-4.0-1.56","true"
"387","ImagesCoins/10R105.png","190","test",".","image-keyboard-response","658","656455","0.0-4.0-1.57","true"
"979","ImagesCoins/10L92.5.png","190","test",".","image-keyboard-response","660","657940","0.0-4.0-1.58","true"
"837","ImagesCoins/10R92.5.png","188","test",",","image-keyboard-response","662","659279","0.0-4.0-1.59","true"
"982","ImagesCoins/10L107.5.png","188","test",",","image-keyboard-response","664","660767","0.0-4.0-1.60","true"
"702","ImagesCoins/10L95.png","190","test",".","image-keyboard-response","666","661972","0.0-4.0-1.61","true"
"1503","ImagesCoins/10R97.5.png","190","test",",","image-keyboard-response","668","663978","0.0-4.0-1.62","false"
"536","ImagesCoins/10L105.png","188","test",",","image-keyboard-response","670","665020","0.0-4.0-1.63","true"
"1402","ImagesCoins/10L100.png","188","test",".","image-keyboard-response","672","666924","0.0-4.0-1.64","false"
"615","ImagesCoins/10R102.5.png","190","test",".","image-keyboard-response","674","668042","0.0-4.0-1.65","true"
"600","ImagesCoins/10L102.5.png","190","test",",","image-keyboard-response","676","669147","0.0-4.0-1.66","false"
"1553","ImagesCoins/10L90.png","190","test",".","image-keyboard-response","678","671205","0.0-4.0-1.67","true"
"673","ImagesCoins/10R107.5.png","190","test",".","image-keyboard-response","680","672380","0.0-4.0-1.68","true"
"504","ImagesCoins/10R95.png","190","test",",","image-keyboard-response","682","673388","0.0-4.0-1.69","false"
"10993","ImagesCoins/10R100.png","190","test",".","image-keyboard-response","684","684887","0.0-4.0-1.70","true"
"778","ImagesCoins/10L110.png","190","test",",","image-keyboard-response","686","686168","0.0-4.0-1.71","false"
"934","ImagesCoins/10R95.png","188","test",",","image-keyboard-response","688","687606","0.0-4.0-1.72","true"
"689","ImagesCoins/10R92.5.png","188","test",",","image-keyboard-response","690","688799","0.0-4.0-1.73","true"
"603","ImagesCoins/10R102.5.png","190","test",".","image-keyboard-response","692","689904","0.0-4.0-1.74","true"
"1081","ImagesCoins/10L100.png","188","test",".","image-keyboard-response","694","691488","0.0-4.0-1.75","false"
"595","ImagesCoins/10L107.5.png","188","test",",","image-keyboard-response","696","692589","0.0-4.0-1.76","true"
"610","ImagesCoins/10R105.png","190","test",".","image-keyboard-response","698","693701","0.0-4.0-1.77","true"
"471","ImagesCoins/10R110.png","190","test",".","image-keyboard-response","700","694676","0.0-4.0-1.78","true"
"891","ImagesCoins/10L92.5.png","190","test",".","image-keyboard-response","702","696073","0.0-4.0-1.79","true"
"1135","ImagesCoins/10R100.png","190","test",".","image-keyboard-response","704","697714","0.0-4.0-1.80","true"
"574","ImagesCoins/10L110.png","188","test",",","image-keyboard-response","706","698791","0.0-4.0-1.81","true"
"820","ImagesCoins/10L90.png","190","test",".","image-keyboard-response","708","700118","0.0-4.0-1.82","true"
"608","ImagesCoins/10R97.5.png","188","test",",","image-keyboard-response","710","701229","0.0-4.0-1.83","true"
"482","ImagesCoins/10L105.png","188","test",",","image-keyboard-response","712","702216","0.0-4.0-1.84","true"
"525","ImagesCoins/10L95.png","190","test",".","image-keyboard-response","714","703247","0.0-4.0-1.85","true"
"537","ImagesCoins/10R107.5.png","190","test",".","image-keyboard-response","716","704288","0.0-4.0-1.86","true"
"1161","ImagesCoins/10L97.5.png","190","test",".","image-keyboard-response","718","705954","0.0-4.0-1.87","true"
"867","ImagesCoins/10R90.png","188","test",",","image-keyboard-response","720","707327","0.0-4.0-1.88","true"
"1630","ImagesCoins/10L102.5.png","188","test",",","image-keyboard-response","722","709461","0.0-4.0-1.89","true"
