"rt","stimulus","key_press","test_part","correct_response","trial_type","trial_index","time_elapsed","internal_node_id","correct"
"3921","ImagesTennis/TL90.png","190","test",".","image-keyboard-response","4","27726","0.0-3.0-1.0","true"
"3650","ImagesSoccer/VR90.png","188","test",",","image-keyboard-response","6","31880","0.0-3.0-1.1","true"
"1018","ImagesDirect/VL107.5.png","188","test",",","image-keyboard-response","8","33401","0.0-3.0-1.2","true"
"1916","ImagesDirect/VR97.5.png","190","test",",","image-keyboard-response","10","35820","0.0-3.0-1.3","false"
"718","ImagesTennis/TR95.png","188","test",",","image-keyboard-response","12","37042","0.0-3.0-1.4","true"
"3784","ImagesSoccer/VL92.5.png","190","test",".","image-keyboard-response","14","41330","0.0-3.0-1.5","true"
"1661","ImagesDirect/VL102.5.png","188","test",",","image-keyboard-response","16","43495","0.0-3.0-1.6","true"
"1522","ImagesSoccer/VL100.png","188","test",".","image-keyboard-response","18","45520","0.0-3.0-1.7","false"
"1292","ImagesTennis/TL102.5.png","188","test",",","image-keyboard-response","20","47316","0.0-3.0-1.8","true"
"3577","ImagesSoccer/VL102.5.png","190","test",",","image-keyboard-response","22","51395","0.0-3.0-1.9","false"
"1369","ImagesDirect/VL105.png","188","test",",","image-keyboard-response","24","53267","0.0-3.0-1.10","true"
"1075","ImagesDirect/VR90.png","188","test",",","image-keyboard-response","26","54846","0.0-3.0-1.11","true"
"3131","ImagesDirect/VR92.5.png","188","test",",","image-keyboard-response","28","58481","0.0-3.0-1.12","true"
"5832","ImagesTennis/TR110.png","190","test",".","image-keyboard-response","30","64816","0.0-3.0-1.13","true"
"2153","ImagesDirect/VR95.png","190","test",",","image-keyboard-response","32","67474","0.0-3.0-1.14","false"
"2521","ImagesTennis/TL100.png","188","test",".","image-keyboard-response","34","70498","0.0-3.0-1.15","false"
"661","ImagesTennis/TR92.5.png","188","test",",","image-keyboard-response","36","71663","0.0-3.0-1.16","true"
"933","ImagesSoccer/VR110.png","190","test",".","image-keyboard-response","38","73099","0.0-3.0-1.17","true"
"636","ImagesSoccer/VL105.png","188","test",",","image-keyboard-response","40","74238","0.0-3.0-1.18","true"
"948","ImagesSoccer/VR97.5.png","188","test",",","image-keyboard-response","42","75691","0.0-3.0-1.19","true"
"764","ImagesSoccer/VR95.png","188","test",",","image-keyboard-response","44","76958","0.0-3.0-1.20","true"
"1130","ImagesTennis/TL95.png","190","test",".","image-keyboard-response","46","78592","0.0-3.0-1.21","true"
"1156","ImagesDirect/VL97.5.png","188","test",".","image-keyboard-response","48","80250","0.0-3.0-1.22","false"
"583","ImagesTennis/TL105.png","188","test",",","image-keyboard-response","50","81337","0.0-3.0-1.23","true"
"551","ImagesDirect/VR102.5.png","190","test",".","image-keyboard-response","52","82390","0.0-3.0-1.24","true"
"508","ImagesDirect/VL100.png","188","test",".","image-keyboard-response","54","83401","0.0-3.0-1.25","false"
"3639","ImagesTennis/TR107.5.png","188","test",".","image-keyboard-response","56","87542","0.0-3.0-1.26","false"
"648","ImagesTennis/TL97.5.png","190","test",".","image-keyboard-response","58","88692","0.0-3.0-1.27","true"
"572","ImagesTennis/TL110.png","188","test",",","image-keyboard-response","60","89767","0.0-3.0-1.28","true"
"618","ImagesSoccer/VR107.5.png","190","test",".","image-keyboard-response","62","90888","0.0-3.0-1.29","true"
"512","ImagesSoccer/VL107.5.png","188","test",",","image-keyboard-response","64","91903","0.0-3.0-1.30","true"
"657","ImagesSoccer/VR105.png","190","test",".","image-keyboard-response","66","93063","0.0-3.0-1.31","true"
"621","ImagesSoccer/VR92.5.png","188","test",",","image-keyboard-response","68","94186","0.0-3.0-1.32","true"
"726","ImagesTennis/TR105.png","190","test",".","image-keyboard-response","70","95419","0.0-3.0-1.33","true"
"564","ImagesDirect/VR107.5.png","190","test",".","image-keyboard-response","72","96485","0.0-3.0-1.34","true"
"498","ImagesDirect/VR110.png","190","test",".","image-keyboard-response","74","97486","0.0-3.0-1.35","true"
"440","ImagesDirect/VL110.png","188","test",",","image-keyboard-response","76","98430","0.0-3.0-1.36","true"
"548","ImagesSoccer/VL110.png","188","test",",","image-keyboard-response","78","99480","0.0-3.0-1.37","true"
"1876","ImagesDirect/VL92.5.png","190","test",".","image-keyboard-response","80","101859","0.0-3.0-1.38","true"
"1384","ImagesDirect/VR100.png","190","test",".","image-keyboard-response","82","103745","0.0-3.0-1.39","true"
"483","ImagesTennis/TR90.png","188","test",",","image-keyboard-response","84","104730","0.0-3.0-1.40","true"
"423","ImagesSoccer/VL95.png","190","test",".","image-keyboard-response","86","105657","0.0-3.0-1.41","true"
"956","ImagesTennis/TR100.png","188","test",".","image-keyboard-response","88","107116","0.0-3.0-1.42","false"
"822","ImagesDirect/VL90.png","190","test",".","image-keyboard-response","90","108441","0.0-3.0-1.43","true"
"1002","ImagesDirect/VR105.png","190","test",".","image-keyboard-response","92","109946","0.0-3.0-1.44","true"
"1216","ImagesSoccer/VR102.5.png","190","test",".","image-keyboard-response","94","111664","0.0-3.0-1.45","true"
"1029","ImagesTennis/TL92.5.png","190","test",".","image-keyboard-response","96","113197","0.0-3.0-1.46","true"
"469","ImagesTennis/TR97.5.png","188","test",",","image-keyboard-response","98","114169","0.0-3.0-1.47","true"
"1111","ImagesDirect/VL95.png","188","test",".","image-keyboard-response","100","115784","0.0-3.0-1.48","false"
"811","ImagesSoccer/VL90.png","190","test",".","image-keyboard-response","102","117099","0.0-3.0-1.49","true"
"712","ImagesTennis/TL107.5.png","188","test",",","image-keyboard-response","104","118314","0.0-3.0-1.50","true"
"1475","ImagesSoccer/VL97.5.png","190","test",".","image-keyboard-response","106","120291","0.0-3.0-1.51","true"
"469","ImagesTennis/TR102.5.png","188","test",".","image-keyboard-response","108","121262","0.0-3.0-1.52","false"
"1021","ImagesSoccer/VR100.png","190","test",".","image-keyboard-response","110","122786","0.0-3.0-1.53","true"
"530","ImagesTennis/TL90.png","190","test",".","image-keyboard-response","112","123819","0.0-3.0-1.54","true"
"1056","ImagesSoccer/VL90.png","190","test",".","image-keyboard-response","114","125379","0.0-3.0-1.55","true"
"1413","ImagesTennis/TL100.png","190","test",".","image-keyboard-response","116","127294","0.0-3.0-1.56","true"
"448","ImagesDirect/VR105.png","190","test",".","image-keyboard-response","118","128247","0.0-3.0-1.57","true"
"474","ImagesSoccer/VR92.5.png","188","test",",","image-keyboard-response","120","129224","0.0-3.0-1.58","true"
"788","ImagesSoccer/VL97.5.png","190","test",".","image-keyboard-response","122","130514","0.0-3.0-1.59","true"
"458","ImagesDirect/VR92.5.png","188","test",",","image-keyboard-response","124","131474","0.0-3.0-1.60","true"
"660","ImagesDirect/VL105.png","188","test",",","image-keyboard-response","126","132636","0.0-3.0-1.61","true"
"1055","ImagesDirect/VL95.png","190","test",".","image-keyboard-response","128","134196","0.0-3.0-1.62","true"
"503","ImagesTennis/TR97.5.png","188","test",",","image-keyboard-response","130","135203","0.0-3.0-1.63","true"
"445","ImagesTennis/TR110.png","190","test",".","image-keyboard-response","132","136152","0.0-3.0-1.64","true"
"711","ImagesDirect/VL100.png","190","test",".","image-keyboard-response","134","137367","0.0-3.0-1.65","true"
"574","ImagesSoccer/VR105.png","190","test",".","image-keyboard-response","136","138444","0.0-3.0-1.66","true"
"821","ImagesSoccer/VR95.png","190","test",",","image-keyboard-response","138","139768","0.0-3.0-1.67","false"
"652","ImagesSoccer/VR102.5.png","190","test",".","image-keyboard-response","140","140923","0.0-3.0-1.68","true"
"287","ImagesSoccer/VL110.png","190","test",",","image-keyboard-response","142","141713","0.0-3.0-1.69","false"
"549","ImagesDirect/VR102.5.png","190","test",".","image-keyboard-response","144","142766","0.0-3.0-1.70","true"
"671","ImagesDirect/VL90.png","190","test",".","image-keyboard-response","146","143940","0.0-3.0-1.71","true"
"1648","ImagesSoccer/VR100.png","190","test",".","image-keyboard-response","148","146090","0.0-3.0-1.72","true"
"818","ImagesDirect/VL107.5.png","188","test",",","image-keyboard-response","150","147412","0.0-3.0-1.73","true"
"572","ImagesSoccer/VL92.5.png","190","test",".","image-keyboard-response","152","148487","0.0-3.0-1.74","true"
"604","ImagesTennis/TR107.5.png","190","test",".","image-keyboard-response","154","149594","0.0-3.0-1.75","true"
"752","ImagesSoccer/VL102.5.png","188","test",",","image-keyboard-response","156","150848","0.0-3.0-1.76","true"
"588","ImagesTennis/TL110.png","190","test",",","image-keyboard-response","158","151939","0.0-3.0-1.77","false"
"1852","ImagesDirect/VL97.5.png","190","test",".","image-keyboard-response","160","154292","0.0-3.0-1.78","true"
"1482","ImagesSoccer/VL100.png","188","test",".","image-keyboard-response","162","156276","0.0-3.0-1.79","false"
"1002","ImagesDirect/VR110.png","190","test",".","image-keyboard-response","164","157782","0.0-3.0-1.80","true"
"3854","ImagesTennis/TR105.png","190","test",".","image-keyboard-response","166","162140","0.0-3.0-1.81","true"
"4694","ImagesTennis/TR100.png","188","test",".","image-keyboard-response","168","167336","0.0-3.0-1.82","false"
"5187","ImagesSoccer/VR107.5.png","188","test",".","image-keyboard-response","170","173026","0.0-3.0-1.83","false"
"1307","ImagesSoccer/VL105.png","190","test",",","image-keyboard-response","172","174837","0.0-3.0-1.84","false"
"1181","ImagesTennis/TR102.5.png","188","test",".","image-keyboard-response","174","176523","0.0-3.0-1.85","false"
"601","ImagesSoccer/VR97.5.png","188","test",",","image-keyboard-response","176","177625","0.0-3.0-1.86","true"
"3698","ImagesDirect/VR95.png","188","test",",","image-keyboard-response","178","181826","0.0-3.0-1.87","true"
"1273","ImagesTennis/TL95.png","190","test",".","image-keyboard-response","180","183602","0.0-3.0-1.88","true"
"2178","ImagesDirect/VL110.png","188","test",",","image-keyboard-response","182","186284","0.0-3.0-1.89","true"
"4297","ImagesDirect/VR97.5.png","188","test",",","image-keyboard-response","184","191085","0.0-3.0-1.90","true"
"750","ImagesSoccer/VR90.png","188","test",",","image-keyboard-response","186","192338","0.0-3.0-1.91","true"
"1100","ImagesDirect/VR90.png","188","test",",","image-keyboard-response","188","193941","0.0-3.0-1.92","true"
"4091","ImagesSoccer/VL107.5.png","188","test",",","image-keyboard-response","190","198535","0.0-3.0-1.93","true"
"1735","ImagesTennis/TL105.png","190","test",",","image-keyboard-response","192","200774","0.0-3.0-1.94","false"
"1067","ImagesTennis/TR92.5.png","188","test",",","image-keyboard-response","194","202344","0.0-3.0-1.95","true"
"1339","ImagesTennis/TR95.png","188","test",",","image-keyboard-response","196","204187","0.0-3.0-1.96","true"
"832","ImagesTennis/TL102.5.png","190","test",",","image-keyboard-response","198","205523","0.0-3.0-1.97","false"
"2458","ImagesTennis/TL97.5.png","190","test",".","image-keyboard-response","200","208483","0.0-3.0-1.98","true"
"694","ImagesDirect/VL102.5.png","188","test",",","image-keyboard-response","202","209681","0.0-3.0-1.99","true"
"633","ImagesDirect/VR107.5.png","190","test",".","image-keyboard-response","204","210818","0.0-3.0-1.100","true"
"1014","ImagesSoccer/VL95.png","190","test",".","image-keyboard-response","206","212334","0.0-3.0-1.101","true"
"1038","ImagesTennis/TL92.5.png","190","test",".","image-keyboard-response","208","213875","0.0-3.0-1.102","true"
"849","ImagesSoccer/VR110.png","188","test",".","image-keyboard-response","210","215226","0.0-3.0-1.103","false"
"1538","ImagesTennis/TL107.5.png","188","test",",","image-keyboard-response","212","217266","0.0-3.0-1.104","true"
"888","ImagesTennis/TR90.png","188","test",",","image-keyboard-response","214","218658","0.0-3.0-1.105","true"
"482","ImagesDirect/VL92.5.png","190","test",".","image-keyboard-response","216","219643","0.0-3.0-1.106","true"
"485","ImagesDirect/VR100.png","190","test",".","image-keyboard-response","218","220631","0.0-3.0-1.107","true"
"1125","ImagesTennis/TR100.png","188","test",".","image-keyboard-response","220","222259","0.0-3.0-1.108","false"
"2697","ImagesDirect/VL92.5.png","190","test",".","image-keyboard-response","222","225459","0.0-3.0-1.109","true"
"610","ImagesDirect/VR90.png","190","test",",","image-keyboard-response","224","226573","0.0-3.0-1.110","false"
"710","ImagesTennis/TL92.5.png","190","test",".","image-keyboard-response","226","227786","0.0-3.0-1.111","true"
"503","ImagesTennis/TR90.png","188","test",",","image-keyboard-response","228","228793","0.0-3.0-1.112","true"
"1849","ImagesDirect/VL100.png","190","test",".","image-keyboard-response","230","231147","0.0-3.0-1.113","true"
"638","ImagesDirect/VR110.png","190","test",".","image-keyboard-response","232","232289","0.0-3.0-1.114","true"
"988","ImagesSoccer/VR97.5.png","188","test",",","image-keyboard-response","234","233781","0.0-3.0-1.115","true"
"4502","ImagesSoccer/VR105.png","190","test",".","image-keyboard-response","236","238785","0.0-3.0-1.116","true"
"2279","ImagesSoccer/VR100.png","188","test",".","image-keyboard-response","238","241567","0.0-3.0-1.117","false"
"3058","ImagesDirect/VL102.5.png","188","test",",","image-keyboard-response","240","245130","0.0-3.0-1.118","true"
"1792","ImagesTennis/TR105.png","190","test",".","image-keyboard-response","242","247425","0.0-3.0-1.119","true"
"780","ImagesDirect/VL90.png","190","test",".","image-keyboard-response","244","248709","0.0-3.0-1.120","true"
"753","ImagesDirect/VL95.png","188","test",".","image-keyboard-response","246","249964","0.0-3.0-1.121","false"
"645","ImagesSoccer/VR90.png","188","test",",","image-keyboard-response","248","251112","0.0-3.0-1.122","true"
"565","ImagesDirect/VR95.png","190","test",",","image-keyboard-response","250","252179","0.0-3.0-1.123","false"
"1427","ImagesTennis/TR102.5.png","190","test",".","image-keyboard-response","252","254110","0.0-3.0-1.124","true"
"448","ImagesTennis/TR107.5.png","190","test",".","image-keyboard-response","254","255059","0.0-3.0-1.125","true"
"1201","ImagesDirect/VR92.5.png","190","test",",","image-keyboard-response","256","256763","0.0-3.0-1.126","false"
"2244","ImagesSoccer/VL100.png","190","test",".","image-keyboard-response","258","259510","0.0-3.0-1.127","true"
"1341","ImagesSoccer/VL107.5.png","188","test",",","image-keyboard-response","260","261356","0.0-3.0-1.128","true"
"762","ImagesTennis/TL105.png","190","test",",","image-keyboard-response","262","262620","0.0-3.0-1.129","false"
"628","ImagesSoccer/VL110.png","188","test",",","image-keyboard-response","264","263752","0.0-3.0-1.130","true"
"988","ImagesDirect/VR105.png","190","test",".","image-keyboard-response","266","265244","0.0-3.0-1.131","true"
"631","ImagesTennis/TL95.png","190","test",".","image-keyboard-response","268","266379","0.0-3.0-1.132","true"
"476","ImagesTennis/TL97.5.png","190","test",".","image-keyboard-response","270","267356","0.0-3.0-1.133","true"
"426","ImagesSoccer/VL90.png","190","test",".","image-keyboard-response","272","268285","0.0-3.0-1.134","true"
"304","ImagesTennis/TR110.png","190","test",".","image-keyboard-response","274","269093","0.0-3.0-1.135","true"
"507","ImagesSoccer/VL92.5.png","190","test",".","image-keyboard-response","276","270102","0.0-3.0-1.136","true"
"1167","ImagesDirect/VR97.5.png","190","test",",","image-keyboard-response","278","271773","0.0-3.0-1.137","false"
"574","ImagesTennis/TR92.5.png","188","test",",","image-keyboard-response","280","272851","0.0-3.0-1.138","true"
"755","ImagesDirect/VL97.5.png","190","test",".","image-keyboard-response","282","274109","0.0-3.0-1.139","true"
"512","ImagesTennis/TR95.png","188","test",",","image-keyboard-response","284","275124","0.0-3.0-1.140","true"
"976","ImagesSoccer/VR95.png","188","test",",","image-keyboard-response","286","276603","0.0-3.0-1.141","true"
"984","ImagesDirect/VL107.5.png","188","test",",","image-keyboard-response","288","278089","0.0-3.0-1.142","true"
"546","ImagesTennis/TL107.5.png","190","test",",","image-keyboard-response","290","279138","0.0-3.0-1.143","false"
"679","ImagesDirect/VR107.5.png","190","test",".","image-keyboard-response","292","280321","0.0-3.0-1.144","true"
"508","ImagesTennis/TL100.png","190","test",".","image-keyboard-response","294","281331","0.0-3.0-1.145","true"
"591","ImagesDirect/VL110.png","188","test",",","image-keyboard-response","296","282425","0.0-3.0-1.146","true"
"1065","ImagesDirect/VR102.5.png","190","test",".","image-keyboard-response","298","283993","0.0-3.0-1.147","true"
"617","ImagesSoccer/VL97.5.png","190","test",".","image-keyboard-response","300","285111","0.0-3.0-1.148","true"
"297","ImagesTennis/TL90.png","190","test",".","image-keyboard-response","302","285913","0.0-3.0-1.149","true"
"688","ImagesSoccer/VR107.5.png","188","test",".","image-keyboard-response","304","287105","0.0-3.0-1.150","false"
"434","ImagesTennis/TL110.png","190","test",",","image-keyboard-response","306","288041","0.0-3.0-1.151","false"
"494","ImagesTennis/TR97.5.png","188","test",",","image-keyboard-response","308","289038","0.0-3.0-1.152","true"
"528","ImagesSoccer/VR92.5.png","188","test",",","image-keyboard-response","310","290069","0.0-3.0-1.153","true"
"312","ImagesSoccer/VL95.png","190","test",".","image-keyboard-response","312","290884","0.0-3.0-1.154","true"
"766","ImagesDirect/VL105.png","188","test",",","image-keyboard-response","314","292154","0.0-3.0-1.155","true"
"1330","ImagesSoccer/VR102.5.png","188","test",".","image-keyboard-response","316","293987","0.0-3.0-1.156","false"
"461","ImagesSoccer/VL105.png","190","test",",","image-keyboard-response","318","294953","0.0-3.0-1.157","false"
"813","ImagesTennis/TL102.5.png","190","test",",","image-keyboard-response","320","296270","0.0-3.0-1.158","false"
"1283","ImagesDirect/VR100.png","190","test",".","image-keyboard-response","322","298057","0.0-3.0-1.159","true"
"1207","ImagesSoccer/VR110.png","190","test",".","image-keyboard-response","324","299768","0.0-3.0-1.160","true"
"1149","ImagesSoccer/VL102.5.png","190","test",",","image-keyboard-response","326","301420","0.0-3.0-1.161","false"
"2421","ImagesSoccer/VL110.png","188","test",",","image-keyboard-response","328","304345","0.0-3.0-1.162","true"
"1851","ImagesSoccer/VL90.png","190","test",".","image-keyboard-response","330","306700","0.0-3.0-1.163","true"
"1481","ImagesDirect/VR97.5.png","190","test",",","image-keyboard-response","332","308685","0.0-3.0-1.164","false"
"4430","ImagesSoccer/VL107.5.png","188","test",",","image-keyboard-response","334","313617","0.0-3.0-1.165","true"
"3052","ImagesDirect/VL110.png","188","test",",","image-keyboard-response","336","317172","0.0-3.0-1.166","true"
"4568","ImagesSoccer/VR100.png","188","test",".","image-keyboard-response","338","322245","0.0-3.0-1.167","false"
"2873","ImagesDirect/VR110.png","190","test",".","image-keyboard-response","340","325623","0.0-3.0-1.168","true"
"663","ImagesTennis/TR95.png","188","test",",","image-keyboard-response","342","326792","0.0-3.0-1.169","true"
"1042","ImagesTennis/TL107.5.png","190","test",",","image-keyboard-response","344","328338","0.0-3.0-1.170","false"
"712","ImagesTennis/TR92.5.png","188","test",",","image-keyboard-response","346","329554","0.0-3.0-1.171","true"
"1074","ImagesTennis/TR105.png","190","test",".","image-keyboard-response","348","331131","0.0-3.0-1.172","true"
"1845","ImagesSoccer/VR105.png","190","test",".","image-keyboard-response","350","333479","0.0-3.0-1.173","true"
"696","ImagesTennis/TL95.png","190","test",".","image-keyboard-response","352","334678","0.0-3.0-1.174","true"
"588","ImagesTennis/TL102.5.png","190","test",",","image-keyboard-response","354","335771","0.0-3.0-1.175","false"
"570","ImagesSoccer/VL92.5.png","190","test",".","image-keyboard-response","356","336844","0.0-3.0-1.176","true"
"979","ImagesDirect/VL107.5.png","188","test",",","image-keyboard-response","358","338326","0.0-3.0-1.177","true"
"203","ImagesDirect/VR100.png","190","test",".","image-keyboard-response","360","339032","0.0-3.0-1.178","true"
"248","ImagesTennis/TR97.5.png","188","test",",","image-keyboard-response","362","339782","0.0-3.0-1.179","true"
"6","ImagesSoccer/VR92.5.png","190","test",",","image-keyboard-response","364","340290","0.0-3.0-1.180","false"
"39","ImagesSoccer/VL105.png","190","test",",","image-keyboard-response","366","340833","0.0-3.0-1.181","false"
"113","ImagesDirect/VR92.5.png","188","test",",","image-keyboard-response","368","341449","0.0-3.0-1.182","true"
"107","ImagesTennis/TR110.png","190","test",".","image-keyboard-response","370","342059","0.0-3.0-1.183","true"
"96","ImagesDirect/VL90.png","188","test",".","image-keyboard-response","372","342658","0.0-3.0-1.184","false"
"123","ImagesDirect/VL100.png","190","test",".","image-keyboard-response","374","343285","0.0-3.0-1.185","true"
"125","ImagesDirect/VR102.5.png","188","test",".","image-keyboard-response","376","343913","0.0-3.0-1.186","false"
"139","ImagesTennis/TL105.png","188","test",",","image-keyboard-response","378","344555","0.0-3.0-1.187","true"
"155","ImagesTennis/TR107.5.png","190","test",".","image-keyboard-response","380","345211","0.0-3.0-1.188","true"
"47","ImagesTennis/TR102.5.png","190","test",".","image-keyboard-response","382","345760","0.0-3.0-1.189","true"
"584","ImagesDirect/VR105.png","190","test",".","image-keyboard-response","384","346847","0.0-3.0-1.190","true"
"628","ImagesSoccer/VR102.5.png","190","test",".","image-keyboard-response","386","347978","0.0-3.0-1.191","true"
"252","ImagesSoccer/VR90.png","188","test",",","image-keyboard-response","388","348733","0.0-3.0-1.192","true"
"247","ImagesTennis/TR100.png","190","test",".","image-keyboard-response","390","349482","0.0-3.0-1.193","true"
"479","ImagesTennis/TR90.png","188","test",",","image-keyboard-response","392","350465","0.0-3.0-1.194","true"
"377","ImagesSoccer/VR110.png","190","test",".","image-keyboard-response","394","351344","0.0-3.0-1.195","true"
"1225","ImagesDirect/VR95.png","188","test",",","image-keyboard-response","396","353073","0.0-3.0-1.196","true"
"607","ImagesDirect/VL92.5.png","190","test",".","image-keyboard-response","398","354182","0.0-3.0-1.197","true"
"638","ImagesSoccer/VL97.5.png","190","test",".","image-keyboard-response","400","355323","0.0-3.0-1.198","true"
"494","ImagesTennis/TL100.png","190","test",".","image-keyboard-response","402","356322","0.0-3.0-1.199","true"
"472","ImagesSoccer/VL102.5.png","190","test",",","image-keyboard-response","404","357299","0.0-3.0-1.200","false"
"624","ImagesDirect/VL105.png","188","test",",","image-keyboard-response","406","358426","0.0-3.0-1.201","true"
"328","ImagesTennis/TL110.png","190","test",",","image-keyboard-response","408","359259","0.0-3.0-1.202","false"
"382","ImagesTennis/TL97.5.png","190","test",".","image-keyboard-response","410","360143","0.0-3.0-1.203","true"
"510","ImagesSoccer/VR107.5.png","190","test",".","image-keyboard-response","412","361155","0.0-3.0-1.204","true"
"752","ImagesSoccer/VL95.png","188","test",".","image-keyboard-response","414","362409","0.0-3.0-1.205","false"
"391","ImagesSoccer/VR95.png","190","test",",","image-keyboard-response","416","363302","0.0-3.0-1.206","false"
"1605","ImagesSoccer/VR97.5.png","190","test",",","image-keyboard-response","418","365409","0.0-3.0-1.207","false"
"676","ImagesDirect/VL102.5.png","188","test",",","image-keyboard-response","420","366589","0.0-3.0-1.208","true"
"827","ImagesDirect/VR107.5.png","190","test",".","image-keyboard-response","422","367920","0.0-3.0-1.209","true"
"609","ImagesTennis/TL90.png","190","test",".","image-keyboard-response","424","369032","0.0-3.0-1.210","true"
"426","ImagesDirect/VL95.png","188","test",".","image-keyboard-response","426","369962","0.0-3.0-1.211","false"
"676","ImagesDirect/VR90.png","188","test",",","image-keyboard-response","428","371143","0.0-3.0-1.212","true"
"1079","ImagesDirect/VL97.5.png","188","test",".","image-keyboard-response","430","372724","0.0-3.0-1.213","false"
"453","ImagesSoccer/VL100.png","188","test",".","image-keyboard-response","432","373681","0.0-3.0-1.214","false"
"585","ImagesTennis/TL92.5.png","190","test",".","image-keyboard-response","434","374768","0.0-3.0-1.215","true"
"768","ImagesTennis/TR102.5.png","190","test",".","image-keyboard-response","436","376040","0.0-3.0-1.216","true"
"470","ImagesTennis/TR107.5.png","188","test",".","image-keyboard-response","438","377012","0.0-3.0-1.217","false"
"1449","ImagesSoccer/VL97.5.png","188","test",".","image-keyboard-response","440","378964","0.0-3.0-1.218","false"
"1093","ImagesSoccer/VR107.5.png","188","test",".","image-keyboard-response","442","380559","0.0-3.0-1.219","false"
"493","ImagesTennis/TR92.5.png","188","test",",","image-keyboard-response","444","381555","0.0-3.0-1.220","true"
"623","ImagesSoccer/VL107.5.png","188","test",",","image-keyboard-response","446","382680","0.0-3.0-1.221","true"
"980","ImagesSoccer/VR110.png","190","test",".","image-keyboard-response","448","384164","0.0-3.0-1.222","true"
"761","ImagesDirect/VR95.png","190","test",",","image-keyboard-response","450","385428","0.0-3.0-1.223","false"
"618","ImagesTennis/TL107.5.png","188","test",",","image-keyboard-response","452","386548","0.0-3.0-1.224","true"
"551","ImagesTennis/TL102.5.png","188","test",",","image-keyboard-response","454","387600","0.0-3.0-1.225","true"
"619","ImagesSoccer/VR100.png","190","test",".","image-keyboard-response","456","388723","0.0-3.0-1.226","true"
"376","ImagesTennis/TR95.png","188","test",",","image-keyboard-response","458","389603","0.0-3.0-1.227","true"
"283","ImagesSoccer/VR105.png","190","test",".","image-keyboard-response","460","390388","0.0-3.0-1.228","true"
"171","ImagesDirect/VL105.png","188","test",",","image-keyboard-response","462","391061","0.0-3.0-1.229","true"
"152","ImagesTennis/TL110.png","188","test",",","image-keyboard-response","464","391717","0.0-3.0-1.230","true"
"108","ImagesSoccer/VR95.png","190","test",",","image-keyboard-response","466","392327","0.0-3.0-1.231","false"
"61","ImagesTennis/TR90.png","190","test",",","image-keyboard-response","468","392891","0.0-3.0-1.232","false"
"375","ImagesDirect/VL100.png","188","test",".","image-keyboard-response","470","393769","0.0-3.0-1.233","false"
"461","ImagesDirect/VR105.png","190","test",".","image-keyboard-response","472","394734","0.0-3.0-1.234","true"
"402","ImagesDirect/VL95.png","188","test",".","image-keyboard-response","474","395638","0.0-3.0-1.235","false"
"445","ImagesTennis/TR105.png","190","test",".","image-keyboard-response","476","396586","0.0-3.0-1.236","true"
"416","ImagesDirect/VR102.5.png","188","test",".","image-keyboard-response","478","397504","0.0-3.0-1.237","false"
"52","ImagesDirect/VR107.5.png","190","test",".","image-keyboard-response","480","398058","0.0-3.0-1.238","true"
"43","ImagesSoccer/VL95.png","190","test",".","image-keyboard-response","482","398604","0.0-3.0-1.239","true"
"358","ImagesTennis/TR110.png","188","test",".","image-keyboard-response","484","399465","0.0-3.0-1.240","false"
"412","ImagesDirect/VL102.5.png","190","test",",","image-keyboard-response","486","400381","0.0-3.0-1.241","false"
"296","ImagesSoccer/VR90.png","188","test",",","image-keyboard-response","488","401181","0.0-3.0-1.242","true"
"552","ImagesTennis/TL90.png","188","test",".","image-keyboard-response","490","402237","0.0-3.0-1.243","false"
"403","ImagesSoccer/VL105.png","188","test",",","image-keyboard-response","492","403144","0.0-3.0-1.244","true"
"440","ImagesDirect/VR90.png","188","test",",","image-keyboard-response","494","404087","0.0-3.0-1.245","true"
"431","ImagesDirect/VR97.5.png","190","test",",","image-keyboard-response","496","405022","0.0-3.0-1.246","false"
"412","ImagesSoccer/VR97.5.png","190","test",",","image-keyboard-response","498","405936","0.0-3.0-1.247","false"
"319","ImagesDirect/VL110.png","188","test",",","image-keyboard-response","500","406759","0.0-3.0-1.248","true"
"441","ImagesDirect/VL107.5.png","188","test",",","image-keyboard-response","502","407704","0.0-3.0-1.249","true"
"416","ImagesTennis/TR100.png","190","test",".","image-keyboard-response","504","408625","0.0-3.0-1.250","true"
"377","ImagesTennis/TL97.5.png","190","test",".","image-keyboard-response","506","409504","0.0-3.0-1.251","true"
"411","ImagesSoccer/VL102.5.png","188","test",",","image-keyboard-response","508","410418","0.0-3.0-1.252","true"
"399","ImagesTennis/TR97.5.png","188","test",",","image-keyboard-response","510","411321","0.0-3.0-1.253","true"
"361","ImagesTennis/TL92.5.png","190","test",".","image-keyboard-response","512","412187","0.0-3.0-1.254","true"
"8","ImagesDirect/VL92.5.png","188","test",".","image-keyboard-response","514","412699","0.0-3.0-1.255","false"
"339","ImagesSoccer/VR92.5.png","188","test",",","image-keyboard-response","516","413541","0.0-3.0-1.256","true"
"340","ImagesDirect/VR110.png","190","test",".","image-keyboard-response","518","414383","0.0-3.0-1.257","true"
"328","ImagesTennis/TL95.png","190","test",".","image-keyboard-response","520","415214","0.0-3.0-1.258","true"
"271","ImagesDirect/VR100.png","188","test",".","image-keyboard-response","522","415990","0.0-3.0-1.259","false"
"29","ImagesSoccer/VL92.5.png","190","test",".","image-keyboard-response","524","416520","0.0-3.0-1.260","true"
"322","ImagesSoccer/VL90.png","190","test",".","image-keyboard-response","526","417345","0.0-3.0-1.261","true"
"360","ImagesTennis/TL100.png","188","test",".","image-keyboard-response","528","418210","0.0-3.0-1.262","false"
"307","ImagesSoccer/VL100.png","188","test",".","image-keyboard-response","530","419019","0.0-3.0-1.263","false"
"325","ImagesDirect/VL97.5.png","190","test",".","image-keyboard-response","532","419846","0.0-3.0-1.264","true"
"249","ImagesSoccer/VL110.png","188","test",",","image-keyboard-response","534","420599","0.0-3.0-1.265","true"
"229","ImagesDirect/VL90.png","190","test",".","image-keyboard-response","536","421331","0.0-3.0-1.266","true"
"196","ImagesDirect/VR92.5.png","188","test",",","image-keyboard-response","538","422032","0.0-3.0-1.267","true"
"173","ImagesSoccer/VR102.5.png","190","test",".","image-keyboard-response","540","422706","0.0-3.0-1.268","true"
"147","ImagesTennis/TL105.png","188","test",",","image-keyboard-response","542","423356","0.0-3.0-1.269","true"
"219","ImagesCoins/10L90.png","190","test",".","image-keyboard-response","544","424077","0.0-4.0-1.0","true"
"1807","ImagesCoins/10R97.5.png","188","test",",","image-keyboard-response","546","426387","0.0-4.0-1.1","true"
"1103","ImagesCoins/10L107.5.png","188","test",",","image-keyboard-response","548","427994","0.0-4.0-1.2","true"
"545","ImagesCoins/10L102.5.png","188","test",",","image-keyboard-response","550","429042","0.0-4.0-1.3","true"
"1799","ImagesCoins/10R95.png","188","test",",","image-keyboard-response","552","431342","0.0-4.0-1.4","true"
"1024","ImagesCoins/10L97.5.png","188","test",".","image-keyboard-response","554","432869","0.0-4.0-1.5","false"
"469","ImagesCoins/10R102.5.png","190","test",".","image-keyboard-response","556","433841","0.0-4.0-1.6","true"
"257","ImagesCoins/10R105.png","188","test",".","image-keyboard-response","558","434600","0.0-4.0-1.7","false"
"1180","ImagesCoins/10R100.png","190","test",".","image-keyboard-response","560","436284","0.0-4.0-1.8","true"
"770","ImagesCoins/10R107.5.png","188","test",".","image-keyboard-response","562","437556","0.0-4.0-1.9","false"
"1199","ImagesCoins/10R110.png","188","test",".","image-keyboard-response","564","439260","0.0-4.0-1.10","false"
"854","ImagesCoins/10L95.png","188","test",".","image-keyboard-response","566","440619","0.0-4.0-1.11","false"
"1573","ImagesCoins/10R90.png","188","test",",","image-keyboard-response","568","442695","0.0-4.0-1.12","true"
"572","ImagesCoins/10R92.5.png","188","test",",","image-keyboard-response","570","443769","0.0-4.0-1.13","true"
"1233","ImagesCoins/10L105.png","190","test",",","image-keyboard-response","572","445506","0.0-4.0-1.14","false"
"822","ImagesCoins/10L92.5.png","190","test",".","image-keyboard-response","574","446832","0.0-4.0-1.15","true"
"675","ImagesCoins/10L100.png","188","test",".","image-keyboard-response","576","448012","0.0-4.0-1.16","false"
"293","ImagesCoins/10L110.png","190","test",",","image-keyboard-response","578","448808","0.0-4.0-1.17","false"
"244","ImagesCoins/10L107.5.png","190","test",",","image-keyboard-response","580","449554","0.0-4.0-1.18","false"
"270","ImagesCoins/10R102.5.png","190","test",".","image-keyboard-response","582","450327","0.0-4.0-1.19","true"
"393","ImagesCoins/10R100.png","188","test",".","image-keyboard-response","584","451223","0.0-4.0-1.20","false"
"237","ImagesCoins/10R90.png","190","test",",","image-keyboard-response","586","451964","0.0-4.0-1.21","false"
"8","ImagesCoins/10L110.png","190","test",",","image-keyboard-response","588","452475","0.0-4.0-1.22","false"
"341","ImagesCoins/10R110.png","190","test",".","image-keyboard-response","590","453318","0.0-4.0-1.23","true"
"435","ImagesCoins/10L100.png","190","test",".","image-keyboard-response","592","454256","0.0-4.0-1.24","true"
"315","ImagesCoins/10R95.png","190","test",",","image-keyboard-response","594","455076","0.0-4.0-1.25","false"
"358","ImagesCoins/10L102.5.png","190","test",",","image-keyboard-response","596","455938","0.0-4.0-1.26","false"
"340","ImagesCoins/10L97.5.png","190","test",".","image-keyboard-response","598","456781","0.0-4.0-1.27","true"
"735","ImagesCoins/10R97.5.png","188","test",",","image-keyboard-response","600","458019","0.0-4.0-1.28","true"
"572","ImagesCoins/10L90.png","190","test",".","image-keyboard-response","602","459094","0.0-4.0-1.29","true"
"318","ImagesCoins/10R92.5.png","190","test",",","image-keyboard-response","604","459914","0.0-4.0-1.30","false"
"590","ImagesCoins/10R107.5.png","188","test",".","image-keyboard-response","606","461007","0.0-4.0-1.31","false"
"419","ImagesCoins/10R105.png","190","test",".","image-keyboard-response","608","461929","0.0-4.0-1.32","true"
"1234","ImagesCoins/10L105.png","188","test",",","image-keyboard-response","610","463666","0.0-4.0-1.33","true"
"667","ImagesCoins/10L95.png","190","test",".","image-keyboard-response","612","464835","0.0-4.0-1.34","true"
"458","ImagesCoins/10L92.5.png","190","test",".","image-keyboard-response","614","465800","0.0-4.0-1.35","true"
"620","ImagesCoins/10R107.5.png","190","test",".","image-keyboard-response","616","466924","0.0-4.0-1.36","true"
"744","ImagesCoins/10L100.png","188","test",".","image-keyboard-response","618","468172","0.0-4.0-1.37","false"
"650","ImagesCoins/10L110.png","188","test",",","image-keyboard-response","620","469328","0.0-4.0-1.38","true"
"517","ImagesCoins/10R105.png","190","test",".","image-keyboard-response","622","470348","0.0-4.0-1.39","true"
"362","ImagesCoins/10R110.png","190","test",".","image-keyboard-response","624","471215","0.0-4.0-1.40","true"
"443","ImagesCoins/10L105.png","188","test",",","image-keyboard-response","626","472161","0.0-4.0-1.41","true"
"336","ImagesCoins/10R97.5.png","190","test",",","image-keyboard-response","628","473000","0.0-4.0-1.42","false"
"553","ImagesCoins/10R92.5.png","188","test",",","image-keyboard-response","630","474055","0.0-4.0-1.43","true"
"786","ImagesCoins/10L102.5.png","188","test",",","image-keyboard-response","632","475344","0.0-4.0-1.44","true"
"886","ImagesCoins/10R95.png","188","test",",","image-keyboard-response","634","476734","0.0-4.0-1.45","true"
"450","ImagesCoins/10L97.5.png","190","test",".","image-keyboard-response","636","477688","0.0-4.0-1.46","true"
"216","ImagesCoins/10L95.png","188","test",".","image-keyboard-response","638","478408","0.0-4.0-1.47","false"
"36","ImagesCoins/10L92.5.png","190","test",".","image-keyboard-response","640","478948","0.0-4.0-1.48","true"
"56","ImagesCoins/10R90.png","190","test",",","image-keyboard-response","642","479506","0.0-4.0-1.49","false"
"367","ImagesCoins/10R100.png","188","test",".","image-keyboard-response","644","480375","0.0-4.0-1.50","false"
"195","ImagesCoins/10L90.png","188","test",".","image-keyboard-response","646","481074","0.0-4.0-1.51","false"
"58","ImagesCoins/10R102.5.png","188","test",".","image-keyboard-response","648","481635","0.0-4.0-1.52","false"
"253","ImagesCoins/10L107.5.png","190","test",",","image-keyboard-response","650","482391","0.0-4.0-1.53","false"
"255","ImagesCoins/10L95.png","190","test",".","image-keyboard-response","652","483149","0.0-4.0-1.54","true"
"279","ImagesCoins/10R105.png","190","test",".","image-keyboard-response","654","483932","0.0-4.0-1.55","true"
"333","ImagesCoins/10R107.5.png","190","test",".","image-keyboard-response","656","484768","0.0-4.0-1.56","true"
"241","ImagesCoins/10R102.5.png","190","test",".","image-keyboard-response","658","485513","0.0-4.0-1.57","true"
"1954","ImagesCoins/10L100.png","188","test",".","image-keyboard-response","660","487970","0.0-4.0-1.58","false"
"374","ImagesCoins/10R100.png","190","test",".","image-keyboard-response","662","488847","0.0-4.0-1.59","true"
"286","ImagesCoins/10L110.png","190","test",",","image-keyboard-response","664","489636","0.0-4.0-1.60","false"
"336","ImagesCoins/10L107.5.png","190","test",",","image-keyboard-response","666","490476","0.0-4.0-1.61","false"
"285","ImagesCoins/10L97.5.png","188","test",".","image-keyboard-response","668","491265","0.0-4.0-1.62","false"
"313","ImagesCoins/10R97.5.png","190","test",",","image-keyboard-response","670","492082","0.0-4.0-1.63","false"
"290","ImagesCoins/10R95.png","188","test",",","image-keyboard-response","672","492874","0.0-4.0-1.64","true"
"291","ImagesCoins/10R110.png","190","test",".","image-keyboard-response","674","493667","0.0-4.0-1.65","true"
"317","ImagesCoins/10R90.png","188","test",",","image-keyboard-response","676","494488","0.0-4.0-1.66","true"
"331","ImagesCoins/10R92.5.png","188","test",",","image-keyboard-response","678","495324","0.0-4.0-1.67","true"
"228","ImagesCoins/10L90.png","190","test",".","image-keyboard-response","680","496056","0.0-4.0-1.68","true"
"353","ImagesCoins/10L92.5.png","190","test",".","image-keyboard-response","682","496911","0.0-4.0-1.69","true"
"288","ImagesCoins/10L105.png","190","test",",","image-keyboard-response","684","497703","0.0-4.0-1.70","false"
"157","ImagesCoins/10L102.5.png","190","test",",","image-keyboard-response","686","498363","0.0-4.0-1.71","false"
"129","ImagesCoins/10R95.png","190","test",",","image-keyboard-response","688","498995","0.0-4.0-1.72","false"
"237","ImagesCoins/10L107.5.png","188","test",",","image-keyboard-response","690","499737","0.0-4.0-1.73","true"
"232","ImagesCoins/10R102.5.png","190","test",".","image-keyboard-response","692","500473","0.0-4.0-1.74","true"
"209","ImagesCoins/10R100.png","188","test",".","image-keyboard-response","694","501183","0.0-4.0-1.75","false"
"306","ImagesCoins/10R105.png","190","test",".","image-keyboard-response","696","501994","0.0-4.0-1.76","true"
"230","ImagesCoins/10L100.png","188","test",".","image-keyboard-response","698","502727","0.0-4.0-1.77","false"
"295","ImagesCoins/10R97.5.png","188","test",",","image-keyboard-response","700","503525","0.0-4.0-1.78","true"
"227","ImagesCoins/10R107.5.png","188","test",".","image-keyboard-response","702","504255","0.0-4.0-1.79","false"
"362","ImagesCoins/10R110.png","188","test",".","image-keyboard-response","704","505122","0.0-4.0-1.80","false"
"327","ImagesCoins/10L97.5.png","190","test",".","image-keyboard-response","706","505952","0.0-4.0-1.81","true"
"2","ImagesCoins/10R90.png","188","test",",","image-keyboard-response","708","506457","0.0-4.0-1.82","true"
"207","ImagesCoins/10L110.png","190","test",",","image-keyboard-response","710","507167","0.0-4.0-1.83","false"
"98","ImagesCoins/10L92.5.png","188","test",".","image-keyboard-response","712","507769","0.0-4.0-1.84","false"
"127","ImagesCoins/10L102.5.png","190","test",",","image-keyboard-response","714","508399","0.0-4.0-1.85","false"
"153","ImagesCoins/10L105.png","190","test",",","image-keyboard-response","716","509056","0.0-4.0-1.86","false"
"194","ImagesCoins/10L90.png","190","test",".","image-keyboard-response","718","509754","0.0-4.0-1.87","true"
"136","ImagesCoins/10R92.5.png","188","test",",","image-keyboard-response","720","510391","0.0-4.0-1.88","true"
"424","ImagesCoins/10L95.png","188","test",".","image-keyboard-response","722","511318","0.0-4.0-1.89","false"
