"rt","stimulus","key_press","test_part","correct_response","trial_type","trial_index","time_elapsed","internal_node_id","correct"
"5254","ImagesSoccer/VL97.5.png","190","test",".","image-keyboard-response","4","56910","0.0-3.0-1.0","true"
"1927","ImagesDirect/VR95.png","190","test",",","image-keyboard-response","6","59341","0.0-3.0-1.1","false"
"1937","ImagesDirect/VL105.png","188","test",",","image-keyboard-response","8","61782","0.0-3.0-1.2","true"
"1074","ImagesDirect/VR90.png","190","test",",","image-keyboard-response","10","63360","0.0-3.0-1.3","false"
"1660","ImagesDirect/VL100.png","188","test",".","image-keyboard-response","12","65524","0.0-3.0-1.4","false"
"5449","ImagesSoccer/VL105.png","190","test",",","image-keyboard-response","14","71477","0.0-3.0-1.5","false"
"912","ImagesTennis/TL100.png","190","test",".","image-keyboard-response","16","72892","0.0-3.0-1.6","true"
"1011","ImagesDirect/VL110.png","188","test",",","image-keyboard-response","18","74406","0.0-3.0-1.7","true"
"3038","ImagesTennis/TR100.png","188","test",".","image-keyboard-response","20","77948","0.0-3.0-1.8","false"
"808","ImagesTennis/TL92.5.png","190","test",".","image-keyboard-response","22","79260","0.0-3.0-1.9","true"
"2504","ImagesDirect/VL90.png","190","test",".","image-keyboard-response","24","82267","0.0-3.0-1.10","true"
"1013","ImagesSoccer/VR90.png","188","test",",","image-keyboard-response","26","83784","0.0-3.0-1.11","true"
"718","ImagesTennis/TR110.png","190","test",".","image-keyboard-response","28","85005","0.0-3.0-1.12","true"
"1031","ImagesDirect/VR97.5.png","188","test",",","image-keyboard-response","30","86539","0.0-3.0-1.13","true"
"2005","ImagesDirect/VR100.png","190","test",".","image-keyboard-response","32","89047","0.0-3.0-1.14","true"
"1394","ImagesSoccer/VR105.png","190","test",".","image-keyboard-response","34","90945","0.0-3.0-1.15","true"
"906","ImagesSoccer/VL100.png","190","test",".","image-keyboard-response","36","92355","0.0-3.0-1.16","true"
"827","ImagesSoccer/VL90.png","190","test",".","image-keyboard-response","38","93686","0.0-3.0-1.17","true"
"1346","ImagesTennis/TR102.5.png","188","test",".","image-keyboard-response","40","95536","0.0-3.0-1.18","false"
"833","ImagesSoccer/VL110.png","188","test",",","image-keyboard-response","42","96871","0.0-3.0-1.19","true"
"1028","ImagesSoccer/VL92.5.png","190","test",".","image-keyboard-response","44","98402","0.0-3.0-1.20","true"
"2147","ImagesDirect/VL102.5.png","188","test",",","image-keyboard-response","46","101052","0.0-3.0-1.21","true"
"790","ImagesSoccer/VR107.5.png","190","test",".","image-keyboard-response","48","102345","0.0-3.0-1.22","true"
"766","ImagesSoccer/VL102.5.png","190","test",",","image-keyboard-response","50","103614","0.0-3.0-1.23","false"
"764","ImagesDirect/VR92.5.png","190","test",",","image-keyboard-response","52","104881","0.0-3.0-1.24","false"
"543","ImagesDirect/VR107.5.png","188","test",".","image-keyboard-response","54","105928","0.0-3.0-1.25","false"
"418","ImagesDirect/VR102.5.png","190","test",".","image-keyboard-response","56","106850","0.0-3.0-1.26","true"
"558","ImagesSoccer/VL107.5.png","190","test",",","image-keyboard-response","58","107912","0.0-3.0-1.27","false"
"711","ImagesTennis/TR92.5.png","188","test",",","image-keyboard-response","60","109127","0.0-3.0-1.28","true"
"472","ImagesTennis/TR105.png","188","test",".","image-keyboard-response","62","110103","0.0-3.0-1.29","false"
"899","ImagesDirect/VL95.png","188","test",".","image-keyboard-response","64","111505","0.0-3.0-1.30","false"
"500","ImagesDirect/VL92.5.png","190","test",".","image-keyboard-response","66","112508","0.0-3.0-1.31","true"
"1055","ImagesTennis/TR97.5.png","188","test",",","image-keyboard-response","68","114066","0.0-3.0-1.32","true"
"547","ImagesTennis/TL105.png","188","test",",","image-keyboard-response","70","115116","0.0-3.0-1.33","true"
"474","ImagesTennis/TL110.png","188","test",",","image-keyboard-response","72","116094","0.0-3.0-1.34","true"
"513","ImagesSoccer/VR95.png","190","test",",","image-keyboard-response","74","117110","0.0-3.0-1.35","false"
"577","ImagesTennis/TR107.5.png","190","test",".","image-keyboard-response","76","118190","0.0-3.0-1.36","true"
"658","ImagesTennis/TL97.5.png","190","test",".","image-keyboard-response","78","119351","0.0-3.0-1.37","true"
"945","ImagesSoccer/VR102.5.png","188","test",".","image-keyboard-response","80","120800","0.0-3.0-1.38","false"
"658","ImagesSoccer/VR92.5.png","188","test",",","image-keyboard-response","82","121962","0.0-3.0-1.39","true"
"610","ImagesTennis/TR90.png","188","test",",","image-keyboard-response","84","123075","0.0-3.0-1.40","true"
"559","ImagesTennis/TL90.png","190","test",".","image-keyboard-response","86","124137","0.0-3.0-1.41","true"
"865","ImagesSoccer/VR97.5.png","188","test",",","image-keyboard-response","88","125506","0.0-3.0-1.42","true"
"622","ImagesDirect/VR105.png","190","test",".","image-keyboard-response","90","126631","0.0-3.0-1.43","true"
"929","ImagesSoccer/VR110.png","190","test",".","image-keyboard-response","92","128062","0.0-3.0-1.44","true"
"586","ImagesSoccer/VR100.png","188","test",".","image-keyboard-response","94","129151","0.0-3.0-1.45","false"
"652","ImagesTennis/TL95.png","190","test",".","image-keyboard-response","96","130306","0.0-3.0-1.46","true"
"574","ImagesDirect/VL97.5.png","188","test",".","image-keyboard-response","98","131383","0.0-3.0-1.47","false"
"596","ImagesDirect/VL107.5.png","190","test",",","image-keyboard-response","100","132482","0.0-3.0-1.48","false"
"1033","ImagesDirect/VR110.png","190","test",".","image-keyboard-response","102","134017","0.0-3.0-1.49","true"
"753","ImagesTennis/TR95.png","188","test",",","image-keyboard-response","104","135274","0.0-3.0-1.50","true"
"886","ImagesTennis/TL102.5.png","188","test",",","image-keyboard-response","106","136663","0.0-3.0-1.51","true"
"483","ImagesTennis/TL107.5.png","188","test",",","image-keyboard-response","108","137649","0.0-3.0-1.52","true"
"649","ImagesSoccer/VL95.png","188","test",".","image-keyboard-response","110","138801","0.0-3.0-1.53","false"
"407","ImagesSoccer/VR95.png","190","test",",","image-keyboard-response","112","139712","0.0-3.0-1.54","false"
"358","ImagesSoccer/VR97.5.png","188","test",",","image-keyboard-response","114","140573","0.0-3.0-1.55","true"
"269","ImagesSoccer/VL100.png","188","test",".","image-keyboard-response","116","141345","0.0-3.0-1.56","false"
"159","ImagesSoccer/VL102.5.png","190","test",",","image-keyboard-response","118","142007","0.0-3.0-1.57","false"
"57","ImagesDirect/VR105.png","188","test",".","image-keyboard-response","120","142567","0.0-3.0-1.58","false"
"45","ImagesTennis/TL107.5.png","190","test",",","image-keyboard-response","122","143115","0.0-3.0-1.59","false"
"130","ImagesDirect/VL107.5.png","188","test",",","image-keyboard-response","124","143748","0.0-3.0-1.60","true"
"37","ImagesSoccer/VR105.png","190","test",".","image-keyboard-response","126","144288","0.0-3.0-1.61","true"
"19","ImagesTennis/TR102.5.png","190","test",".","image-keyboard-response","128","144810","0.0-3.0-1.62","true"
"35","ImagesDirect/VL105.png","190","test",",","image-keyboard-response","130","145348","0.0-3.0-1.63","false"
"17","ImagesDirect/VR90.png","190","test",",","image-keyboard-response","132","145868","0.0-3.0-1.64","false"
"257","ImagesDirect/VL102.5.png","190","test",",","image-keyboard-response","134","146627","0.0-3.0-1.65","false"
"132","ImagesTennis/TR97.5.png","188","test",",","image-keyboard-response","136","147262","0.0-3.0-1.66","true"
"634","ImagesTennis/TL90.png","188","test",".","image-keyboard-response","138","148399","0.0-3.0-1.67","false"
"182","ImagesSoccer/VL97.5.png","190","test",".","image-keyboard-response","140","149084","0.0-3.0-1.68","true"
"263","ImagesDirect/VR95.png","188","test",",","image-keyboard-response","142","149851","0.0-3.0-1.69","true"
"483","ImagesDirect/VL92.5.png","188","test",".","image-keyboard-response","144","150837","0.0-3.0-1.70","false"
"106","ImagesSoccer/VL105.png","188","test",",","image-keyboard-response","146","151447","0.0-3.0-1.71","true"
"28","ImagesTennis/TR95.png","188","test",",","image-keyboard-response","148","151977","0.0-3.0-1.72","true"
"17","ImagesTennis/TR90.png","190","test",",","image-keyboard-response","150","152496","0.0-3.0-1.73","false"
"63","ImagesDirect/VR100.png","188","test",".","image-keyboard-response","152","153062","0.0-3.0-1.74","false"
"138","ImagesDirect/VL97.5.png","190","test",".","image-keyboard-response","154","153702","0.0-3.0-1.75","true"
"91","ImagesTennis/TL95.png","190","test",".","image-keyboard-response","156","154296","0.0-3.0-1.76","true"
"47","ImagesTennis/TR105.png","188","test",".","image-keyboard-response","158","154846","0.0-3.0-1.77","false"
"58","ImagesSoccer/VL90.png","190","test",".","image-keyboard-response","160","155407","0.0-3.0-1.78","true"
"189","ImagesTennis/TL105.png","188","test",",","image-keyboard-response","162","156099","0.0-3.0-1.79","true"
"535","ImagesSoccer/VL107.5.png","188","test",",","image-keyboard-response","164","157137","0.0-3.0-1.80","true"
"118","ImagesDirect/VL100.png","190","test",".","image-keyboard-response","166","157758","0.0-3.0-1.81","true"
"65","ImagesSoccer/VR107.5.png","188","test",".","image-keyboard-response","168","158326","0.0-3.0-1.82","false"
"67","ImagesSoccer/VR92.5.png","190","test",",","image-keyboard-response","170","158896","0.0-3.0-1.83","false"
"42","ImagesTennis/TL100.png","188","test",".","image-keyboard-response","172","159441","0.0-3.0-1.84","false"
"18","ImagesSoccer/VR100.png","190","test",".","image-keyboard-response","174","159963","0.0-3.0-1.85","true"
"299","ImagesTennis/TR110.png","190","test",".","image-keyboard-response","176","160764","0.0-3.0-1.86","true"
"516","ImagesDirect/VL90.png","190","test",".","image-keyboard-response","178","161783","0.0-3.0-1.87","true"
"328","ImagesDirect/VR102.5.png","190","test",".","image-keyboard-response","180","162615","0.0-3.0-1.88","true"
"120","ImagesSoccer/VL92.5.png","190","test",".","image-keyboard-response","182","163238","0.0-3.0-1.89","true"
"111","ImagesSoccer/VL95.png","188","test",".","image-keyboard-response","184","163852","0.0-3.0-1.90","false"
"16","ImagesSoccer/VL110.png","188","test",",","image-keyboard-response","186","164371","0.0-3.0-1.91","true"
"153","ImagesTennis/TL92.5.png","190","test",".","image-keyboard-response","188","165026","0.0-3.0-1.92","true"
"152","ImagesDirect/VL110.png","190","test",",","image-keyboard-response","190","165682","0.0-3.0-1.93","false"
"25","ImagesTennis/TR100.png","188","test",".","image-keyboard-response","192","166209","0.0-3.0-1.94","false"
"115","ImagesTennis/TR107.5.png","190","test",".","image-keyboard-response","194","166827","0.0-3.0-1.95","true"
"229","ImagesDirect/VR107.5.png","188","test",".","image-keyboard-response","196","167559","0.0-3.0-1.96","false"
"58","ImagesSoccer/VR102.5.png","188","test",".","image-keyboard-response","198","168120","0.0-3.0-1.97","false"
"79","ImagesSoccer/VR110.png","188","test",".","image-keyboard-response","200","168702","0.0-3.0-1.98","false"
"57","ImagesSoccer/VR90.png","190","test",",","image-keyboard-response","202","169262","0.0-3.0-1.99","false"
"35","ImagesTennis/TR92.5.png","188","test",",","image-keyboard-response","204","169801","0.0-3.0-1.100","true"
"78","ImagesDirect/VL95.png","190","test",".","image-keyboard-response","206","170381","0.0-3.0-1.101","true"
"40","ImagesTennis/TL110.png","190","test",",","image-keyboard-response","208","170924","0.0-3.0-1.102","false"
"17","ImagesTennis/TL97.5.png","188","test",".","image-keyboard-response","210","171444","0.0-3.0-1.103","false"
"44","ImagesDirect/VR97.5.png","190","test",",","image-keyboard-response","212","171990","0.0-3.0-1.104","false"
"49","ImagesTennis/TL102.5.png","190","test",",","image-keyboard-response","214","172542","0.0-3.0-1.105","false"
"37","ImagesDirect/VR110.png","188","test",".","image-keyboard-response","216","173081","0.0-3.0-1.106","false"
"42","ImagesDirect/VR92.5.png","188","test",",","image-keyboard-response","218","173626","0.0-3.0-1.107","true"
"111","ImagesTennis/TR95.png","188","test",",","image-keyboard-response","220","174240","0.0-3.0-1.108","true"
"598","ImagesTennis/TR92.5.png","190","test",",","image-keyboard-response","222","175341","0.0-3.0-1.109","false"
"119","ImagesDirect/VR90.png","188","test",",","image-keyboard-response","224","175963","0.0-3.0-1.110","true"
"62","ImagesDirect/VL92.5.png","190","test",".","image-keyboard-response","226","176527","0.0-3.0-1.111","true"
"169","ImagesSoccer/VL107.5.png","188","test",",","image-keyboard-response","228","177200","0.0-3.0-1.112","true"
"45","ImagesTennis/TR97.5.png","190","test",",","image-keyboard-response","230","177748","0.0-3.0-1.113","false"
"97","ImagesSoccer/VL90.png","188","test",".","image-keyboard-response","232","178348","0.0-3.0-1.114","false"
"42","ImagesTennis/TL110.png","188","test",",","image-keyboard-response","234","178892","0.0-3.0-1.115","true"
"49","ImagesTennis/TL90.png","188","test",".","image-keyboard-response","236","179445","0.0-3.0-1.116","false"
"136","ImagesSoccer/VR107.5.png","190","test",".","image-keyboard-response","238","180084","0.0-3.0-1.117","true"
"101","ImagesSoccer/VL95.png","190","test",".","image-keyboard-response","240","180688","0.0-3.0-1.118","true"
"16","ImagesDirect/VL102.5.png","190","test",",","image-keyboard-response","242","181207","0.0-3.0-1.119","false"
"50","ImagesSoccer/VR97.5.png","188","test",",","image-keyboard-response","244","181760","0.0-3.0-1.120","true"
"71","ImagesTennis/TR90.png","190","test",",","image-keyboard-response","246","182335","0.0-3.0-1.121","false"
"56","ImagesDirect/VR107.5.png","188","test",".","image-keyboard-response","248","182893","0.0-3.0-1.122","false"
"39","ImagesDirect/VL97.5.png","190","test",".","image-keyboard-response","250","183435","0.0-3.0-1.123","true"
"458","ImagesDirect/VR100.png","188","test",".","image-keyboard-response","252","184396","0.0-3.0-1.124","false"
"63","ImagesDirect/VL95.png","190","test",".","image-keyboard-response","254","184962","0.0-3.0-1.125","true"
"83","ImagesSoccer/VL110.png","188","test",",","image-keyboard-response","256","185548","0.0-3.0-1.126","true"
"34","ImagesTennis/TL107.5.png","188","test",",","image-keyboard-response","258","186085","0.0-3.0-1.127","true"
"37","ImagesSoccer/VR95.png","188","test",",","image-keyboard-response","260","186625","0.0-3.0-1.128","true"
"11","ImagesSoccer/VR100.png","188","test",".","image-keyboard-response","262","187139","0.0-3.0-1.129","false"
"369","ImagesTennis/TL92.5.png","190","test",".","image-keyboard-response","264","188011","0.0-3.0-1.130","true"
"40","ImagesTennis/TL97.5.png","190","test",".","image-keyboard-response","266","188554","0.0-3.0-1.131","true"
"40","ImagesDirect/VR95.png","188","test",",","image-keyboard-response","268","189096","0.0-3.0-1.132","true"
"99","ImagesSoccer/VL105.png","190","test",",","image-keyboard-response","270","189698","0.0-3.0-1.133","false"
"38","ImagesSoccer/VR92.5.png","188","test",",","image-keyboard-response","272","190239","0.0-3.0-1.134","true"
"53","ImagesTennis/TL105.png","188","test",",","image-keyboard-response","274","190795","0.0-3.0-1.135","true"
"21","ImagesSoccer/VR105.png","188","test",".","image-keyboard-response","276","191320","0.0-3.0-1.136","false"
"562","ImagesTennis/TL100.png","190","test",".","image-keyboard-response","278","192385","0.0-3.0-1.137","true"
"55","ImagesDirect/VL100.png","188","test",".","image-keyboard-response","280","192943","0.0-3.0-1.138","false"
"26","ImagesSoccer/VL102.5.png","190","test",",","image-keyboard-response","282","193472","0.0-3.0-1.139","false"
"268","ImagesTennis/TR107.5.png","190","test",".","image-keyboard-response","284","194243","0.0-3.0-1.140","true"
"619","ImagesSoccer/VR90.png","190","test",",","image-keyboard-response","286","195365","0.0-3.0-1.141","false"
"200","ImagesDirect/VL107.5.png","190","test",",","image-keyboard-response","288","196067","0.0-3.0-1.142","false"
"17","ImagesDirect/VR97.5.png","188","test",",","image-keyboard-response","290","196587","0.0-3.0-1.143","true"
"66","ImagesTennis/TR110.png","190","test",".","image-keyboard-response","292","197156","0.0-3.0-1.144","true"
"60","ImagesTennis/TL95.png","188","test",".","image-keyboard-response","294","197719","0.0-3.0-1.145","false"
"11","ImagesTennis/TL102.5.png","190","test",",","image-keyboard-response","296","198233","0.0-3.0-1.146","false"
"59","ImagesTennis/TR100.png","188","test",".","image-keyboard-response","298","198795","0.0-3.0-1.147","false"
"35","ImagesSoccer/VL100.png","190","test",".","image-keyboard-response","300","199333","0.0-3.0-1.148","true"
"68","ImagesSoccer/VR102.5.png","190","test",".","image-keyboard-response","302","199904","0.0-3.0-1.149","true"
"3","ImagesDirect/VL90.png","188","test",".","image-keyboard-response","304","200409","0.0-3.0-1.150","false"
"132","ImagesTennis/TR102.5.png","188","test",".","image-keyboard-response","306","201043","0.0-3.0-1.151","false"
"21","ImagesDirect/VR105.png","188","test",".","image-keyboard-response","308","201568","0.0-3.0-1.152","false"
"80","ImagesSoccer/VR110.png","188","test",".","image-keyboard-response","310","202150","0.0-3.0-1.153","false"
"28","ImagesSoccer/VL97.5.png","190","test",".","image-keyboard-response","312","202681","0.0-3.0-1.154","true"
"44","ImagesTennis/TR105.png","190","test",".","image-keyboard-response","314","203228","0.0-3.0-1.155","true"
"69","ImagesDirect/VL105.png","190","test",",","image-keyboard-response","316","203800","0.0-3.0-1.156","false"
"394","ImagesSoccer/VL92.5.png","188","test",".","image-keyboard-response","318","204696","0.0-3.0-1.157","false"
"9","ImagesDirect/VL110.png","190","test",",","image-keyboard-response","320","205207","0.0-3.0-1.158","false"
"137","ImagesDirect/VR110.png","188","test",".","image-keyboard-response","322","205846","0.0-3.0-1.159","false"
"17","ImagesDirect/VR92.5.png","190","test",",","image-keyboard-response","324","206365","0.0-3.0-1.160","false"
"24","ImagesDirect/VR102.5.png","188","test",".","image-keyboard-response","326","206891","0.0-3.0-1.161","false"
"56","ImagesDirect/VL92.5.png","190","test",".","image-keyboard-response","328","207450","0.0-3.0-1.162","true"
"73","ImagesDirect/VL105.png","188","test",",","image-keyboard-response","330","208025","0.0-3.0-1.163","true"
"53","ImagesSoccer/VR95.png","190","test",",","image-keyboard-response","332","208581","0.0-3.0-1.164","false"
"8","ImagesSoccer/VL97.5.png","188","test",".","image-keyboard-response","334","209092","0.0-3.0-1.165","false"
"82","ImagesTennis/TL107.5.png","190","test",",","image-keyboard-response","336","209677","0.0-3.0-1.166","false"
"375","ImagesDirect/VR100.png","188","test",".","image-keyboard-response","338","210554","0.0-3.0-1.167","false"
"338","ImagesTennis/TR100.png","190","test",".","image-keyboard-response","340","211394","0.0-3.0-1.168","true"
"0","ImagesSoccer/VR90.png","188","test",",","image-keyboard-response","342","211896","0.0-3.0-1.169","true"
"286","ImagesSoccer/VL110.png","190","test",",","image-keyboard-response","344","212684","0.0-3.0-1.170","false"
"372","ImagesSoccer/VR100.png","188","test",".","image-keyboard-response","346","213559","0.0-3.0-1.171","false"
"222","ImagesDirect/VR97.5.png","188","test",",","image-keyboard-response","348","214284","0.0-3.0-1.172","true"
"440","ImagesTennis/TL95.png","188","test",".","image-keyboard-response","350","215227","0.0-3.0-1.173","false"
"34","ImagesSoccer/VR105.png","188","test",".","image-keyboard-response","352","215764","0.0-3.0-1.174","false"
"337","ImagesSoccer/VL102.5.png","188","test",",","image-keyboard-response","354","216604","0.0-3.0-1.175","true"
"116","ImagesDirect/VR105.png","188","test",".","image-keyboard-response","356","217223","0.0-3.0-1.176","false"
"41","ImagesDirect/VL107.5.png","190","test",",","image-keyboard-response","358","217767","0.0-3.0-1.177","false"
"19","ImagesSoccer/VL107.5.png","190","test",",","image-keyboard-response","360","218289","0.0-3.0-1.178","false"
"41","ImagesTennis/TR97.5.png","190","test",",","image-keyboard-response","362","218832","0.0-3.0-1.179","false"
"69","ImagesDirect/VR90.png","190","test",",","image-keyboard-response","364","219404","0.0-3.0-1.180","false"
"35","ImagesSoccer/VL92.5.png","190","test",".","image-keyboard-response","366","219942","0.0-3.0-1.181","true"
"381","ImagesTennis/TL90.png","188","test",".","image-keyboard-response","368","220825","0.0-3.0-1.182","false"
"69","ImagesDirect/VL110.png","190","test",",","image-keyboard-response","370","221397","0.0-3.0-1.183","false"
"34","ImagesTennis/TR90.png","188","test",",","image-keyboard-response","372","221935","0.0-3.0-1.184","true"
"47","ImagesTennis/TL97.5.png","190","test",".","image-keyboard-response","374","222485","0.0-3.0-1.185","true"
"17","ImagesTennis/TL102.5.png","190","test",",","image-keyboard-response","376","223005","0.0-3.0-1.186","false"
"23","ImagesDirect/VL100.png","188","test",".","image-keyboard-response","378","223530","0.0-3.0-1.187","false"
"84","ImagesDirect/VR102.5.png","188","test",".","image-keyboard-response","380","224118","0.0-3.0-1.188","false"
"474","ImagesTennis/TR110.png","188","test",".","image-keyboard-response","382","225093","0.0-3.0-1.189","false"
"78","ImagesSoccer/VL105.png","190","test",",","image-keyboard-response","384","225674","0.0-3.0-1.190","false"
"50","ImagesTennis/TL110.png","190","test",",","image-keyboard-response","386","226227","0.0-3.0-1.191","false"
"7","ImagesDirect/VL97.5.png","190","test",".","image-keyboard-response","388","226737","0.0-3.0-1.192","true"
"435","ImagesSoccer/VL95.png","188","test",".","image-keyboard-response","390","227675","0.0-3.0-1.193","false"
"111","ImagesSoccer/VL90.png","190","test",".","image-keyboard-response","392","228289","0.0-3.0-1.194","true"
"78","ImagesTennis/TR92.5.png","188","test",",","image-keyboard-response","394","228870","0.0-3.0-1.195","true"
"23","ImagesDirect/VR95.png","188","test",",","image-keyboard-response","396","229396","0.0-3.0-1.196","true"
"7","ImagesTennis/TL92.5.png","190","test",".","image-keyboard-response","398","229906","0.0-3.0-1.197","true"
"96","ImagesTennis/TR102.5.png","190","test",".","image-keyboard-response","400","230504","0.0-3.0-1.198","true"
"162","ImagesSoccer/VR107.5.png","188","test",".","image-keyboard-response","402","231169","0.0-3.0-1.199","false"
"118","ImagesDirect/VR92.5.png","190","test",",","image-keyboard-response","404","231790","0.0-3.0-1.200","false"
"72","ImagesSoccer/VR110.png","188","test",".","image-keyboard-response","406","232365","0.0-3.0-1.201","false"
"71","ImagesTennis/TR107.5.png","190","test",".","image-keyboard-response","408","232938","0.0-3.0-1.202","true"
"34","ImagesSoccer/VR102.5.png","188","test",".","image-keyboard-response","410","233475","0.0-3.0-1.203","false"
"61","ImagesSoccer/VR92.5.png","190","test",",","image-keyboard-response","412","234039","0.0-3.0-1.204","false"
"119","ImagesDirect/VR107.5.png","188","test",".","image-keyboard-response","414","234661","0.0-3.0-1.205","false"
"424","ImagesDirect/VL95.png","188","test",".","image-keyboard-response","416","235587","0.0-3.0-1.206","false"
"64","ImagesSoccer/VR97.5.png","190","test",",","image-keyboard-response","418","236154","0.0-3.0-1.207","false"
"94","ImagesTennis/TL105.png","188","test",",","image-keyboard-response","420","236751","0.0-3.0-1.208","true"
"78","ImagesDirect/VL102.5.png","190","test",",","image-keyboard-response","422","237332","0.0-3.0-1.209","false"
"70","ImagesTennis/TR95.png","188","test",",","image-keyboard-response","424","237905","0.0-3.0-1.210","true"
"506","ImagesDirect/VL90.png","188","test",".","image-keyboard-response","426","238914","0.0-3.0-1.211","false"
"172","ImagesDirect/VR110.png","188","test",".","image-keyboard-response","428","239587","0.0-3.0-1.212","false"
"440","ImagesTennis/TL100.png","190","test",".","image-keyboard-response","430","240530","0.0-3.0-1.213","true"
"103","ImagesTennis/TR105.png","188","test",".","image-keyboard-response","432","241136","0.0-3.0-1.214","false"
"40","ImagesSoccer/VL100.png","190","test",".","image-keyboard-response","434","241679","0.0-3.0-1.215","true"
"61","ImagesDirect/VR105.png","188","test",".","image-keyboard-response","436","242242","0.0-3.0-1.216","false"
"31","ImagesSoccer/VL105.png","190","test",",","image-keyboard-response","438","242776","0.0-3.0-1.217","false"
"84","ImagesSoccer/VR105.png","188","test",".","image-keyboard-response","440","243363","0.0-3.0-1.218","false"
"497","ImagesSoccer/VR92.5.png","188","test",",","image-keyboard-response","442","244363","0.0-3.0-1.219","true"
"63","ImagesSoccer/VL90.png","190","test",".","image-keyboard-response","444","244929","0.0-3.0-1.220","true"
"27","ImagesDirect/VR110.png","188","test",".","image-keyboard-response","446","245458","0.0-3.0-1.221","false"
"62","ImagesTennis/TL102.5.png","190","test",",","image-keyboard-response","448","246023","0.0-3.0-1.222","false"
"60","ImagesSoccer/VL100.png","188","test",".","image-keyboard-response","450","246586","0.0-3.0-1.223","false"
"60","ImagesTennis/TR97.5.png","190","test",",","image-keyboard-response","452","247149","0.0-3.0-1.224","false"
"43","ImagesDirect/VL95.png","190","test",".","image-keyboard-response","454","247695","0.0-3.0-1.225","true"
"429","ImagesDirect/VL97.5.png","188","test",".","image-keyboard-response","456","248626","0.0-3.0-1.226","false"
"60","ImagesTennis/TL90.png","188","test",".","image-keyboard-response","458","249188","0.0-3.0-1.227","false"
"67","ImagesTennis/TL107.5.png","188","test",",","image-keyboard-response","460","249757","0.0-3.0-1.228","true"
"13","ImagesSoccer/VR110.png","188","test",".","image-keyboard-response","462","250272","0.0-3.0-1.229","false"
"502","ImagesDirect/VR97.5.png","190","test",",","image-keyboard-response","464","251277","0.0-3.0-1.230","false"
"63","ImagesTennis/TR90.png","190","test",",","image-keyboard-response","466","251842","0.0-3.0-1.231","false"
"539","ImagesSoccer/VL102.5.png","188","test",",","image-keyboard-response","468","252885","0.0-3.0-1.232","true"
"40","ImagesSoccer/VR95.png","188","test",",","image-keyboard-response","470","253427","0.0-3.0-1.233","true"
"10","ImagesSoccer/VR100.png","190","test",".","image-keyboard-response","472","253941","0.0-3.0-1.234","true"
"539","ImagesDirect/VR102.5.png","190","test",".","image-keyboard-response","474","254983","0.0-3.0-1.235","true"
"96","ImagesSoccer/VR90.png","188","test",",","image-keyboard-response","476","255581","0.0-3.0-1.236","true"
"17","ImagesDirect/VL105.png","190","test",",","image-keyboard-response","478","256101","0.0-3.0-1.237","false"
"19","ImagesTennis/TR110.png","188","test",".","image-keyboard-response","480","256623","0.0-3.0-1.238","false"
"32","ImagesSoccer/VL110.png","190","test",",","image-keyboard-response","482","257158","0.0-3.0-1.239","false"
"3","ImagesTennis/TR100.png","188","test",".","image-keyboard-response","484","257663","0.0-3.0-1.240","false"
"60","ImagesDirect/VR90.png","188","test",",","image-keyboard-response","486","258225","0.0-3.0-1.241","true"
"9","ImagesTennis/TR102.5.png","190","test",".","image-keyboard-response","488","258737","0.0-3.0-1.242","true"
"114","ImagesDirect/VR92.5.png","188","test",",","image-keyboard-response","490","259354","0.0-3.0-1.243","true"
"438","ImagesTennis/TL100.png","190","test",".","image-keyboard-response","492","260294","0.0-3.0-1.244","true"
"57","ImagesSoccer/VR97.5.png","190","test",",","image-keyboard-response","494","260854","0.0-3.0-1.245","false"
"40","ImagesDirect/VL100.png","190","test",".","image-keyboard-response","496","261397","0.0-3.0-1.246","true"
"585","ImagesTennis/TL110.png","188","test",",","image-keyboard-response","498","262485","0.0-3.0-1.247","true"
"59","ImagesDirect/VR100.png","190","test",".","image-keyboard-response","500","263047","0.0-3.0-1.248","true"
"44","ImagesDirect/VL90.png","188","test",".","image-keyboard-response","502","263594","0.0-3.0-1.249","false"
"9","ImagesTennis/TR95.png","188","test",",","image-keyboard-response","504","264105","0.0-3.0-1.250","true"
"12","ImagesSoccer/VL107.5.png","188","test",",","image-keyboard-response","506","264620","0.0-3.0-1.251","true"
"27","ImagesDirect/VR107.5.png","188","test",".","image-keyboard-response","508","265150","0.0-3.0-1.252","false"
"0","ImagesTennis/TR92.5.png","190","test",",","image-keyboard-response","510","265652","0.0-3.0-1.253","false"
"78","ImagesDirect/VL107.5.png","190","test",",","image-keyboard-response","512","266233","0.0-3.0-1.254","false"
"109","ImagesDirect/VR95.png","190","test",",","image-keyboard-response","514","266845","0.0-3.0-1.255","false"
"34","ImagesSoccer/VR102.5.png","190","test",".","image-keyboard-response","516","267382","0.0-3.0-1.256","true"
"84","ImagesTennis/TL105.png","188","test",",","image-keyboard-response","518","267969","0.0-3.0-1.257","true"
"85","ImagesSoccer/VL97.5.png","190","test",".","image-keyboard-response","520","268557","0.0-3.0-1.258","true"
"84","ImagesDirect/VL102.5.png","190","test",",","image-keyboard-response","522","269143","0.0-3.0-1.259","false"
"31","ImagesTennis/TL95.png","188","test",".","image-keyboard-response","524","269677","0.0-3.0-1.260","false"
"61","ImagesTennis/TL97.5.png","190","test",".","image-keyboard-response","526","270241","0.0-3.0-1.261","true"
"65","ImagesSoccer/VL92.5.png","188","test",".","image-keyboard-response","528","270809","0.0-3.0-1.262","false"
"95","ImagesDirect/VL110.png","188","test",",","image-keyboard-response","530","271407","0.0-3.0-1.263","true"
"118","ImagesTennis/TL92.5.png","188","test",".","image-keyboard-response","532","272028","0.0-3.0-1.264","false"
"17","ImagesSoccer/VR107.5.png","190","test",".","image-keyboard-response","534","272549","0.0-3.0-1.265","true"
"76","ImagesTennis/TR105.png","190","test",".","image-keyboard-response","536","273127","0.0-3.0-1.266","true"
"528","ImagesDirect/VL92.5.png","190","test",".","image-keyboard-response","538","274157","0.0-3.0-1.267","true"
"84","ImagesSoccer/VL95.png","188","test",".","image-keyboard-response","540","274744","0.0-3.0-1.268","false"
"144","ImagesTennis/TR107.5.png","188","test",".","image-keyboard-response","542","275390","0.0-3.0-1.269","false"
"80","ImagesCoins/10L90.png","190","test",".","image-keyboard-response","544","275973","0.0-4.0-1.0","true"
"1059","ImagesCoins/10R102.5.png","188","test",".","image-keyboard-response","546","277536","0.0-4.0-1.1","false"
"466","ImagesCoins/10R105.png","188","test",".","image-keyboard-response","548","278505","0.0-4.0-1.2","false"
"392","ImagesCoins/10L95.png","188","test",".","image-keyboard-response","550","279401","0.0-4.0-1.3","false"
"477","ImagesCoins/10L105.png","190","test",",","image-keyboard-response","552","280380","0.0-4.0-1.4","false"
"765","ImagesCoins/10R110.png","190","test",".","image-keyboard-response","554","281649","0.0-4.0-1.5","true"
"587","ImagesCoins/10R90.png","188","test",",","image-keyboard-response","556","282739","0.0-4.0-1.6","true"
"659","ImagesCoins/10R107.5.png","190","test",".","image-keyboard-response","558","283901","0.0-4.0-1.7","true"
"261","ImagesCoins/10L92.5.png","188","test",".","image-keyboard-response","560","284665","0.0-4.0-1.8","false"
"159","ImagesCoins/10L102.5.png","190","test",",","image-keyboard-response","562","285328","0.0-4.0-1.9","false"
"476","ImagesCoins/10L100.png","190","test",".","image-keyboard-response","564","286307","0.0-4.0-1.10","true"
"138","ImagesCoins/10R97.5.png","188","test",",","image-keyboard-response","566","286948","0.0-4.0-1.11","true"
"293","ImagesCoins/10L110.png","188","test",",","image-keyboard-response","568","287745","0.0-4.0-1.12","true"
"167","ImagesCoins/10R92.5.png","188","test",",","image-keyboard-response","570","288415","0.0-4.0-1.13","true"
"130","ImagesCoins/10R95.png","190","test",",","image-keyboard-response","572","289048","0.0-4.0-1.14","false"
"264","ImagesCoins/10R100.png","190","test",".","image-keyboard-response","574","289815","0.0-4.0-1.15","true"
"102","ImagesCoins/10L107.5.png","188","test",",","image-keyboard-response","576","290420","0.0-4.0-1.16","true"
"227","ImagesCoins/10L97.5.png","188","test",".","image-keyboard-response","578","291150","0.0-4.0-1.17","false"
"182","ImagesCoins/10R95.png","190","test",",","image-keyboard-response","580","291835","0.0-4.0-1.18","false"
"407","ImagesCoins/10L95.png","188","test",".","image-keyboard-response","582","292745","0.0-4.0-1.19","false"
"154","ImagesCoins/10R100.png","190","test",".","image-keyboard-response","584","293401","0.0-4.0-1.20","true"
"270","ImagesCoins/10R105.png","188","test",".","image-keyboard-response","586","294175","0.0-4.0-1.21","false"
"371","ImagesCoins/10R102.5.png","190","test",".","image-keyboard-response","588","295049","0.0-4.0-1.22","true"
"183","ImagesCoins/10R107.5.png","188","test",".","image-keyboard-response","590","295735","0.0-4.0-1.23","false"
"200","ImagesCoins/10L100.png","190","test",".","image-keyboard-response","592","296438","0.0-4.0-1.24","true"
"215","ImagesCoins/10L102.5.png","188","test",",","image-keyboard-response","594","297156","0.0-4.0-1.25","true"
"155","ImagesCoins/10R92.5.png","190","test",",","image-keyboard-response","596","297813","0.0-4.0-1.26","false"
"254","ImagesCoins/10L105.png","188","test",",","image-keyboard-response","598","298570","0.0-4.0-1.27","true"
"139","ImagesCoins/10L90.png","188","test",".","image-keyboard-response","600","299212","0.0-4.0-1.28","false"
"225","ImagesCoins/10R110.png","190","test",".","image-keyboard-response","602","299940","0.0-4.0-1.29","true"
"177","ImagesCoins/10L107.5.png","190","test",",","image-keyboard-response","604","300620","0.0-4.0-1.30","false"
"136","ImagesCoins/10L92.5.png","188","test",".","image-keyboard-response","606","301259","0.0-4.0-1.31","false"
"198","ImagesCoins/10R97.5.png","188","test",",","image-keyboard-response","608","301960","0.0-4.0-1.32","true"
"142","ImagesCoins/10L97.5.png","188","test",".","image-keyboard-response","610","302605","0.0-4.0-1.33","false"
"88","ImagesCoins/10L110.png","188","test",",","image-keyboard-response","612","303196","0.0-4.0-1.34","true"
"190","ImagesCoins/10R90.png","188","test",",","image-keyboard-response","614","303889","0.0-4.0-1.35","true"
"53","ImagesCoins/10L90.png","190","test",".","image-keyboard-response","616","304445","0.0-4.0-1.36","true"
"186","ImagesCoins/10L97.5.png","188","test",".","image-keyboard-response","618","305134","0.0-4.0-1.37","false"
"210","ImagesCoins/10R95.png","190","test",",","image-keyboard-response","620","305847","0.0-4.0-1.38","false"
"180","ImagesCoins/10R107.5.png","188","test",".","image-keyboard-response","622","306530","0.0-4.0-1.39","false"
"203","ImagesCoins/10L105.png","188","test",",","image-keyboard-response","624","307236","0.0-4.0-1.40","true"
"287","ImagesCoins/10L95.png","188","test",".","image-keyboard-response","626","308026","0.0-4.0-1.41","false"
"208","ImagesCoins/10R90.png","188","test",",","image-keyboard-response","628","308737","0.0-4.0-1.42","true"
"218","ImagesCoins/10R105.png","188","test",".","image-keyboard-response","630","309459","0.0-4.0-1.43","false"
"247","ImagesCoins/10L92.5.png","188","test",".","image-keyboard-response","632","310212","0.0-4.0-1.44","false"
"190","ImagesCoins/10R100.png","188","test",".","image-keyboard-response","634","310906","0.0-4.0-1.45","false"
"164","ImagesCoins/10L107.5.png","190","test",",","image-keyboard-response","636","311574","0.0-4.0-1.46","false"
"300","ImagesCoins/10R92.5.png","190","test",",","image-keyboard-response","638","312376","0.0-4.0-1.47","false"
"230","ImagesCoins/10L100.png","190","test",".","image-keyboard-response","640","313112","0.0-4.0-1.48","true"
"222","ImagesCoins/10L102.5.png","188","test",",","image-keyboard-response","642","313836","0.0-4.0-1.49","true"
"341","ImagesCoins/10R97.5.png","188","test",",","image-keyboard-response","644","314680","0.0-4.0-1.50","true"
"167","ImagesCoins/10R102.5.png","190","test",".","image-keyboard-response","646","315350","0.0-4.0-1.51","true"
"420","ImagesCoins/10L110.png","188","test",",","image-keyboard-response","648","316273","0.0-4.0-1.52","true"
"369","ImagesCoins/10R110.png","190","test",".","image-keyboard-response","650","317145","0.0-4.0-1.53","true"
"323","ImagesCoins/10R95.png","188","test",",","image-keyboard-response","652","317971","0.0-4.0-1.54","true"
"243","ImagesCoins/10L95.png","190","test",".","image-keyboard-response","654","318717","0.0-4.0-1.55","true"
"318","ImagesCoins/10L97.5.png","188","test",".","image-keyboard-response","656","319538","0.0-4.0-1.56","false"
"872","ImagesCoins/10R100.png","190","test",".","image-keyboard-response","658","320913","0.0-4.0-1.57","true"
"221","ImagesCoins/10R97.5.png","188","test",",","image-keyboard-response","660","321637","0.0-4.0-1.58","true"
"291","ImagesCoins/10R110.png","190","test",".","image-keyboard-response","662","322431","0.0-4.0-1.59","true"
"328","ImagesCoins/10L102.5.png","188","test",",","image-keyboard-response","664","323263","0.0-4.0-1.60","true"
"361","ImagesCoins/10R107.5.png","190","test",".","image-keyboard-response","666","324128","0.0-4.0-1.61","true"
"304","ImagesCoins/10L105.png","188","test",",","image-keyboard-response","668","324935","0.0-4.0-1.62","true"
"351","ImagesCoins/10L90.png","190","test",".","image-keyboard-response","670","325790","0.0-4.0-1.63","true"
"279","ImagesCoins/10R102.5.png","188","test",".","image-keyboard-response","672","326572","0.0-4.0-1.64","false"
"642","ImagesCoins/10L92.5.png","188","test",".","image-keyboard-response","674","327718","0.0-4.0-1.65","false"
"408","ImagesCoins/10R105.png","190","test",".","image-keyboard-response","676","328629","0.0-4.0-1.66","true"
"409","ImagesCoins/10L110.png","188","test",",","image-keyboard-response","678","329540","0.0-4.0-1.67","true"
"408","ImagesCoins/10L100.png","188","test",".","image-keyboard-response","680","330451","0.0-4.0-1.68","false"
"258","ImagesCoins/10R92.5.png","190","test",",","image-keyboard-response","682","331212","0.0-4.0-1.69","false"
"576","ImagesCoins/10R90.png","188","test",",","image-keyboard-response","684","332291","0.0-4.0-1.70","true"
"271","ImagesCoins/10L107.5.png","188","test",",","image-keyboard-response","686","333065","0.0-4.0-1.71","true"
"263","ImagesCoins/10L105.png","188","test",",","image-keyboard-response","688","333831","0.0-4.0-1.72","true"
"85","ImagesCoins/10L90.png","190","test",".","image-keyboard-response","690","334420","0.0-4.0-1.73","true"
"180","ImagesCoins/10R100.png","188","test",".","image-keyboard-response","692","335103","0.0-4.0-1.74","false"
"173","ImagesCoins/10L102.5.png","190","test",",","image-keyboard-response","694","335779","0.0-4.0-1.75","false"
"127","ImagesCoins/10R95.png","188","test",",","image-keyboard-response","696","336409","0.0-4.0-1.76","true"
"142","ImagesCoins/10R105.png","190","test",".","image-keyboard-response","698","337053","0.0-4.0-1.77","true"
"82","ImagesCoins/10R97.5.png","188","test",",","image-keyboard-response","700","337639","0.0-4.0-1.78","true"
"162","ImagesCoins/10R102.5.png","188","test",".","image-keyboard-response","702","338304","0.0-4.0-1.79","false"
"126","ImagesCoins/10L97.5.png","190","test",".","image-keyboard-response","704","338934","0.0-4.0-1.80","true"
"225","ImagesCoins/10L100.png","188","test",".","image-keyboard-response","706","339662","0.0-4.0-1.81","false"
"122","ImagesCoins/10R90.png","190","test",",","image-keyboard-response","708","340287","0.0-4.0-1.82","false"
"180","ImagesCoins/10R107.5.png","188","test",".","image-keyboard-response","710","340970","0.0-4.0-1.83","false"
"180","ImagesCoins/10L92.5.png","190","test",".","image-keyboard-response","712","341655","0.0-4.0-1.84","true"
"235","ImagesCoins/10R110.png","188","test",".","image-keyboard-response","714","342394","0.0-4.0-1.85","false"
"202","ImagesCoins/10L107.5.png","190","test",",","image-keyboard-response","716","343098","0.0-4.0-1.86","false"
"250","ImagesCoins/10L110.png","188","test",",","image-keyboard-response","718","343853","0.0-4.0-1.87","true"
"339","ImagesCoins/10L95.png","188","test",".","image-keyboard-response","720","344694","0.0-4.0-1.88","false"
"110","ImagesCoins/10R92.5.png","190","test",",","image-keyboard-response","722","345306","0.0-4.0-1.89","false"
