"rt","stimulus","key_press","test_part","correct_response","trial_type","trial_index","time_elapsed","internal_node_id","correct"
"984","ImagesSoccer/VL97.5.png","188","test",".","image-keyboard-response","4","32740","0.0-3.0-1.0","false"
"1210","ImagesSoccer/VR95.png","190","test",",","image-keyboard-response","6","34453","0.0-3.0-1.1","false"
"1674","ImagesTennis/TR92.5.png","188","test",",","image-keyboard-response","8","36629","0.0-3.0-1.2","true"
"1033","ImagesTennis/TR100.png","190","test",".","image-keyboard-response","10","38165","0.0-3.0-1.3","true"
"858","ImagesDirect/VR97.5.png","190","test",",","image-keyboard-response","12","39524","0.0-3.0-1.4","false"
"1244","ImagesSoccer/VL100.png","188","test",".","image-keyboard-response","14","41270","0.0-3.0-1.5","false"
"699","ImagesSoccer/VR100.png","190","test",".","image-keyboard-response","16","42470","0.0-3.0-1.6","true"
"1179","ImagesDirect/VL97.5.png","190","test",".","image-keyboard-response","18","44150","0.0-3.0-1.7","true"
"955","ImagesDirect/VL105.png","188","test",",","image-keyboard-response","20","45607","0.0-3.0-1.8","true"
"1545","ImagesSoccer/VR97.5.png","188","test",",","image-keyboard-response","22","47654","0.0-3.0-1.9","true"
"970","ImagesDirect/VR90.png","188","test",",","image-keyboard-response","24","49126","0.0-3.0-1.10","true"
"650","ImagesSoccer/VR110.png","190","test",".","image-keyboard-response","26","50278","0.0-3.0-1.11","true"
"714","ImagesTennis/TR102.5.png","190","test",".","image-keyboard-response","28","51494","0.0-3.0-1.12","true"
"538","ImagesDirect/VR110.png","190","test",".","image-keyboard-response","30","52534","0.0-3.0-1.13","true"
"538","ImagesTennis/TR107.5.png","190","test",".","image-keyboard-response","32","53574","0.0-3.0-1.14","true"
"665","ImagesTennis/TL97.5.png","188","test",".","image-keyboard-response","34","54742","0.0-3.0-1.15","false"
"1354","ImagesDirect/VL100.png","190","test",".","image-keyboard-response","36","56598","0.0-3.0-1.16","true"
"714","ImagesTennis/TL90.png","190","test",".","image-keyboard-response","38","57814","0.0-3.0-1.17","true"
"857","ImagesTennis/TL105.png","188","test",",","image-keyboard-response","40","59174","0.0-3.0-1.18","true"
"1035","ImagesDirect/VL92.5.png","188","test",".","image-keyboard-response","42","60710","0.0-3.0-1.19","false"
"667","ImagesDirect/VR100.png","190","test",".","image-keyboard-response","44","61878","0.0-3.0-1.20","true"
"554","ImagesSoccer/VR105.png","190","test",".","image-keyboard-response","46","62934","0.0-3.0-1.21","true"
"922","ImagesTennis/TL95.png","188","test",".","image-keyboard-response","48","64358","0.0-3.0-1.22","false"
"858","ImagesDirect/VR95.png","190","test",",","image-keyboard-response","50","65718","0.0-3.0-1.23","false"
"811","ImagesDirect/VL102.5.png","188","test",",","image-keyboard-response","52","67030","0.0-3.0-1.24","true"
"762","ImagesSoccer/VR92.5.png","190","test",",","image-keyboard-response","54","68294","0.0-3.0-1.25","false"
"762","ImagesSoccer/VL90.png","190","test",".","image-keyboard-response","56","69559","0.0-3.0-1.26","true"
"762","ImagesSoccer/VL92.5.png","190","test",".","image-keyboard-response","58","70822","0.0-3.0-1.27","true"
"793","ImagesDirect/VL110.png","188","test",",","image-keyboard-response","60","72118","0.0-3.0-1.28","true"
"682","ImagesTennis/TL110.png","188","test",",","image-keyboard-response","62","73302","0.0-3.0-1.29","true"
"650","ImagesDirect/VL90.png","190","test",".","image-keyboard-response","64","74454","0.0-3.0-1.30","true"
"651","ImagesDirect/VR92.5.png","190","test",",","image-keyboard-response","66","75606","0.0-3.0-1.31","false"
"1001","ImagesDirect/VR102.5.png","190","test",".","image-keyboard-response","68","77110","0.0-3.0-1.32","true"
"681","ImagesDirect/VR107.5.png","190","test",".","image-keyboard-response","70","78294","0.0-3.0-1.33","true"
"714","ImagesSoccer/VL105.png","188","test",",","image-keyboard-response","72","79510","0.0-3.0-1.34","true"
"747","ImagesSoccer/VL95.png","190","test",".","image-keyboard-response","74","80758","0.0-3.0-1.35","true"
"1129","ImagesSoccer/VR102.5.png","190","test",".","image-keyboard-response","76","82390","0.0-3.0-1.36","true"
"1113","ImagesTennis/TL102.5.png","190","test",",","image-keyboard-response","78","84006","0.0-3.0-1.37","false"
"1005","ImagesTennis/TL107.5.png","188","test",",","image-keyboard-response","80","85511","0.0-3.0-1.38","true"
"889","ImagesTennis/TR97.5.png","188","test",",","image-keyboard-response","82","86902","0.0-3.0-1.39","true"
"937","ImagesTennis/TR95.png","188","test",",","image-keyboard-response","84","88342","0.0-3.0-1.40","true"
"1082","ImagesSoccer/VR90.png","188","test",",","image-keyboard-response","86","89926","0.0-3.0-1.41","true"
"794","ImagesTennis/TL100.png","190","test",".","image-keyboard-response","88","91222","0.0-3.0-1.42","true"
"762","ImagesDirect/VR105.png","190","test",".","image-keyboard-response","90","92486","0.0-3.0-1.43","true"
"1098","ImagesDirect/VL95.png","190","test",".","image-keyboard-response","92","94086","0.0-3.0-1.44","true"
"779","ImagesDirect/VL107.5.png","188","test",",","image-keyboard-response","94","95366","0.0-3.0-1.45","true"
"571","ImagesSoccer/VL107.5.png","188","test",",","image-keyboard-response","96","96438","0.0-3.0-1.46","true"
"762","ImagesTennis/TR90.png","188","test",",","image-keyboard-response","98","97702","0.0-3.0-1.47","true"
"730","ImagesSoccer/VL102.5.png","188","test",",","image-keyboard-response","100","98934","0.0-3.0-1.48","true"
"651","ImagesSoccer/VR107.5.png","190","test",".","image-keyboard-response","102","100087","0.0-3.0-1.49","true"
"697","ImagesTennis/TR105.png","190","test",".","image-keyboard-response","104","101291","0.0-3.0-1.50","true"
"682","ImagesSoccer/VL110.png","188","test",",","image-keyboard-response","106","102475","0.0-3.0-1.51","true"
"634","ImagesTennis/TR110.png","190","test",".","image-keyboard-response","108","103611","0.0-3.0-1.52","true"
"682","ImagesTennis/TL92.5.png","190","test",".","image-keyboard-response","110","104795","0.0-3.0-1.53","true"
"810","ImagesSoccer/VR102.5.png","190","test",".","image-keyboard-response","112","106107","0.0-3.0-1.54","true"
"1003","ImagesSoccer/VL95.png","190","test",".","image-keyboard-response","114","107611","0.0-3.0-1.55","true"
"1001","ImagesSoccer/VR95.png","188","test",",","image-keyboard-response","116","109115","0.0-3.0-1.56","true"
"601","ImagesTennis/TR97.5.png","188","test",",","image-keyboard-response","118","110219","0.0-3.0-1.57","true"
"891","ImagesTennis/TL105.png","188","test",",","image-keyboard-response","120","111611","0.0-3.0-1.58","true"
"667","ImagesDirect/VL100.png","188","test",".","image-keyboard-response","122","112779","0.0-3.0-1.59","false"
"522","ImagesTennis/TR107.5.png","190","test",".","image-keyboard-response","124","113803","0.0-3.0-1.60","true"
"938","ImagesTennis/TL97.5.png","188","test",".","image-keyboard-response","126","115243","0.0-3.0-1.61","false"
"570","ImagesTennis/TL110.png","188","test",",","image-keyboard-response","128","116315","0.0-3.0-1.62","true"
"761","ImagesDirect/VL90.png","190","test",".","image-keyboard-response","130","117579","0.0-3.0-1.63","true"
"714","ImagesDirect/VL92.5.png","190","test",".","image-keyboard-response","132","118795","0.0-3.0-1.64","true"
"635","ImagesTennis/TR95.png","188","test",",","image-keyboard-response","134","119931","0.0-3.0-1.65","true"
"521","ImagesTennis/TL90.png","190","test",".","image-keyboard-response","136","120954","0.0-3.0-1.66","true"
"492","ImagesDirect/VR107.5.png","190","test",".","image-keyboard-response","138","121947","0.0-3.0-1.67","true"
"778","ImagesSoccer/VR107.5.png","190","test",".","image-keyboard-response","140","123227","0.0-3.0-1.68","true"
"586","ImagesDirect/VL102.5.png","188","test",",","image-keyboard-response","142","124315","0.0-3.0-1.69","true"
"858","ImagesSoccer/VL110.png","188","test",",","image-keyboard-response","144","125675","0.0-3.0-1.70","true"
"490","ImagesSoccer/VR97.5.png","190","test",",","image-keyboard-response","146","126667","0.0-3.0-1.71","false"
"571","ImagesSoccer/VL102.5.png","188","test",",","image-keyboard-response","148","127739","0.0-3.0-1.72","true"
"490","ImagesSoccer/VL107.5.png","188","test",",","image-keyboard-response","150","128731","0.0-3.0-1.73","true"
"745","ImagesDirect/VR95.png","190","test",",","image-keyboard-response","152","129979","0.0-3.0-1.74","false"
"554","ImagesSoccer/VR105.png","190","test",".","image-keyboard-response","154","131035","0.0-3.0-1.75","true"
"699","ImagesTennis/TR90.png","188","test",",","image-keyboard-response","156","132235","0.0-3.0-1.76","true"
"586","ImagesDirect/VR102.5.png","190","test",".","image-keyboard-response","158","133323","0.0-3.0-1.77","true"
"841","ImagesDirect/VR92.5.png","190","test",",","image-keyboard-response","160","134666","0.0-3.0-1.78","false"
"667","ImagesDirect/VR90.png","188","test",",","image-keyboard-response","162","135835","0.0-3.0-1.79","true"
"554","ImagesTennis/TR110.png","190","test",".","image-keyboard-response","164","136891","0.0-3.0-1.80","true"
"889","ImagesSoccer/VR110.png","190","test",".","image-keyboard-response","166","138283","0.0-3.0-1.81","true"
"1530","ImagesDirect/VL97.5.png","190","test",".","image-keyboard-response","168","140315","0.0-3.0-1.82","true"
"521","ImagesSoccer/VL90.png","190","test",".","image-keyboard-response","170","141339","0.0-3.0-1.83","true"
"521","ImagesTennis/TL95.png","190","test",".","image-keyboard-response","172","142363","0.0-3.0-1.84","true"
"618","ImagesDirect/VL107.5.png","188","test",",","image-keyboard-response","174","143483","0.0-3.0-1.85","true"
"681","ImagesDirect/VL95.png","190","test",".","image-keyboard-response","176","144667","0.0-3.0-1.86","true"
"665","ImagesTennis/TR92.5.png","188","test",",","image-keyboard-response","178","145835","0.0-3.0-1.87","true"
"426","ImagesDirect/VR110.png","190","test",".","image-keyboard-response","180","146763","0.0-3.0-1.88","true"
"570","ImagesTennis/TL100.png","190","test",".","image-keyboard-response","182","147835","0.0-3.0-1.89","true"
"603","ImagesTennis/TR100.png","188","test",".","image-keyboard-response","184","148939","0.0-3.0-1.90","false"
"922","ImagesDirect/VR97.5.png","188","test",",","image-keyboard-response","186","150363","0.0-3.0-1.91","true"
"729","ImagesSoccer/VL100.png","188","test",".","image-keyboard-response","188","151594","0.0-3.0-1.92","false"
"603","ImagesSoccer/VL105.png","188","test",",","image-keyboard-response","190","152699","0.0-3.0-1.93","true"
"570","ImagesTennis/TL92.5.png","190","test",".","image-keyboard-response","192","153771","0.0-3.0-1.94","true"
"649","ImagesTennis/TL102.5.png","188","test",",","image-keyboard-response","194","154923","0.0-3.0-1.95","true"
"1018","ImagesTennis/TR105.png","188","test",".","image-keyboard-response","196","156443","0.0-3.0-1.96","false"
"1114","ImagesSoccer/VL92.5.png","190","test",".","image-keyboard-response","198","158059","0.0-3.0-1.97","true"
"712","ImagesTennis/TL107.5.png","188","test",",","image-keyboard-response","200","159275","0.0-3.0-1.98","true"
"667","ImagesTennis/TR102.5.png","188","test",".","image-keyboard-response","202","160443","0.0-3.0-1.99","false"
"906","ImagesSoccer/VL97.5.png","190","test",".","image-keyboard-response","204","161855","0.0-3.0-1.100","true"
"538","ImagesDirect/VL110.png","188","test",",","image-keyboard-response","206","162895","0.0-3.0-1.101","true"
"619","ImagesDirect/VR100.png","190","test",".","image-keyboard-response","208","164015","0.0-3.0-1.102","true"
"778","ImagesSoccer/VR90.png","188","test",",","image-keyboard-response","210","165295","0.0-3.0-1.103","true"
"728","ImagesSoccer/VR92.5.png","188","test",",","image-keyboard-response","212","166526","0.0-3.0-1.104","true"
"603","ImagesSoccer/VR100.png","190","test",".","image-keyboard-response","214","167631","0.0-3.0-1.105","true"
"506","ImagesDirect/VL105.png","188","test",",","image-keyboard-response","216","168639","0.0-3.0-1.106","true"
"570","ImagesDirect/VR105.png","190","test",".","image-keyboard-response","218","169711","0.0-3.0-1.107","true"
"555","ImagesSoccer/VR105.png","190","test",".","image-keyboard-response","220","170767","0.0-3.0-1.108","true"
"1162","ImagesDirect/VL95.png","188","test",".","image-keyboard-response","222","172431","0.0-3.0-1.109","false"
"586","ImagesSoccer/VR102.5.png","190","test",".","image-keyboard-response","224","173520","0.0-3.0-1.110","true"
"666","ImagesDirect/VL102.5.png","188","test",",","image-keyboard-response","226","174687","0.0-3.0-1.111","true"
"906","ImagesTennis/TR100.png","188","test",".","image-keyboard-response","228","176095","0.0-3.0-1.112","false"
"682","ImagesTennis/TL90.png","190","test",".","image-keyboard-response","230","177279","0.0-3.0-1.113","true"
"922","ImagesSoccer/VR100.png","190","test",".","image-keyboard-response","232","178703","0.0-3.0-1.114","true"
"811","ImagesDirect/VR100.png","190","test",".","image-keyboard-response","234","180015","0.0-3.0-1.115","true"
"730","ImagesSoccer/VL105.png","188","test",",","image-keyboard-response","236","181247","0.0-3.0-1.116","true"
"571","ImagesTennis/TL97.5.png","190","test",".","image-keyboard-response","238","182319","0.0-3.0-1.117","true"
"523","ImagesDirect/VL90.png","190","test",".","image-keyboard-response","240","183343","0.0-3.0-1.118","true"
"538","ImagesTennis/TR105.png","190","test",".","image-keyboard-response","242","184383","0.0-3.0-1.119","true"
"1403","ImagesDirect/VR97.5.png","188","test",",","image-keyboard-response","244","186287","0.0-3.0-1.120","true"
"506","ImagesDirect/VL105.png","188","test",",","image-keyboard-response","246","187295","0.0-3.0-1.121","true"
"890","ImagesSoccer/VR90.png","188","test",",","image-keyboard-response","248","188687","0.0-3.0-1.122","true"
"538","ImagesDirect/VL100.png","188","test",".","image-keyboard-response","250","189727","0.0-3.0-1.123","false"
"570","ImagesTennis/TR97.5.png","188","test",",","image-keyboard-response","252","190799","0.0-3.0-1.124","true"
"602","ImagesDirect/VL97.5.png","188","test",".","image-keyboard-response","254","191903","0.0-3.0-1.125","false"
"1002","ImagesTennis/TL100.png","188","test",".","image-keyboard-response","256","193407","0.0-3.0-1.126","false"
"1113","ImagesSoccer/VR97.5.png","188","test",",","image-keyboard-response","258","195023","0.0-3.0-1.127","true"
"554","ImagesDirect/VL110.png","188","test",",","image-keyboard-response","260","196079","0.0-3.0-1.128","true"
"536","ImagesTennis/TR107.5.png","190","test",".","image-keyboard-response","262","197118","0.0-3.0-1.129","true"
"523","ImagesTennis/TR95.png","188","test",",","image-keyboard-response","264","198144","0.0-3.0-1.130","true"
"473","ImagesDirect/VR107.5.png","190","test",".","image-keyboard-response","266","199119","0.0-3.0-1.131","true"
"538","ImagesTennis/TR110.png","190","test",".","image-keyboard-response","268","200159","0.0-3.0-1.132","true"
"666","ImagesTennis/TL92.5.png","190","test",".","image-keyboard-response","270","201327","0.0-3.0-1.133","true"
"618","ImagesSoccer/VL90.png","190","test",".","image-keyboard-response","272","202447","0.0-3.0-1.134","true"
"778","ImagesSoccer/VL102.5.png","188","test",",","image-keyboard-response","274","203727","0.0-3.0-1.135","true"
"474","ImagesSoccer/VR107.5.png","190","test",".","image-keyboard-response","276","204703","0.0-3.0-1.136","true"
"827","ImagesDirect/VR90.png","188","test",",","image-keyboard-response","278","206031","0.0-3.0-1.137","true"
"571","ImagesSoccer/VL92.5.png","190","test",".","image-keyboard-response","280","207103","0.0-3.0-1.138","true"
"745","ImagesTennis/TL105.png","188","test",",","image-keyboard-response","282","208351","0.0-3.0-1.139","true"
"811","ImagesSoccer/VR95.png","188","test",",","image-keyboard-response","284","209663","0.0-3.0-1.140","true"
"889","ImagesTennis/TL110.png","188","test",",","image-keyboard-response","286","211055","0.0-3.0-1.141","true"
"602","ImagesTennis/TR102.5.png","188","test",".","image-keyboard-response","288","212160","0.0-3.0-1.142","false"
"522","ImagesSoccer/VR110.png","190","test",".","image-keyboard-response","290","213183","0.0-3.0-1.143","true"
"569","ImagesTennis/TR90.png","188","test",",","image-keyboard-response","292","214255","0.0-3.0-1.144","true"
"650","ImagesDirect/VL92.5.png","188","test",".","image-keyboard-response","294","215407","0.0-3.0-1.145","false"
"554","ImagesDirect/VR102.5.png","190","test",".","image-keyboard-response","296","216463","0.0-3.0-1.146","true"
"555","ImagesSoccer/VL107.5.png","188","test",",","image-keyboard-response","298","217520","0.0-3.0-1.147","true"
"714","ImagesSoccer/VR92.5.png","188","test",",","image-keyboard-response","300","218735","0.0-3.0-1.148","true"
"474","ImagesDirect/VR110.png","190","test",".","image-keyboard-response","302","219711","0.0-3.0-1.149","true"
"538","ImagesTennis/TL95.png","190","test",".","image-keyboard-response","304","220751","0.0-3.0-1.150","true"
"744","ImagesDirect/VR92.5.png","188","test",",","image-keyboard-response","306","222003","0.0-3.0-1.151","true"
"522","ImagesTennis/TR92.5.png","188","test",",","image-keyboard-response","308","223027","0.0-3.0-1.152","true"
"457","ImagesSoccer/VL100.png","188","test",".","image-keyboard-response","310","223987","0.0-3.0-1.153","false"
"634","ImagesTennis/TL102.5.png","190","test",",","image-keyboard-response","312","225123","0.0-3.0-1.154","false"
"538","ImagesDirect/VL107.5.png","188","test",",","image-keyboard-response","314","226164","0.0-3.0-1.155","true"
"474","ImagesDirect/VR105.png","190","test",".","image-keyboard-response","316","227139","0.0-3.0-1.156","true"
"905","ImagesSoccer/VL97.5.png","190","test",".","image-keyboard-response","318","228547","0.0-3.0-1.157","true"
"506","ImagesSoccer/VL110.png","188","test",",","image-keyboard-response","320","229555","0.0-3.0-1.158","true"
"634","ImagesSoccer/VL95.png","190","test",".","image-keyboard-response","322","230691","0.0-3.0-1.159","true"
"730","ImagesTennis/TL107.5.png","188","test",",","image-keyboard-response","324","231923","0.0-3.0-1.160","true"
"555","ImagesDirect/VR95.png","190","test",",","image-keyboard-response","326","232979","0.0-3.0-1.161","false"
"601","ImagesTennis/TL100.png","190","test",".","image-keyboard-response","328","234083","0.0-3.0-1.162","true"
"506","ImagesDirect/VR97.5.png","190","test",",","image-keyboard-response","330","235091","0.0-3.0-1.163","false"
"458","ImagesDirect/VR110.png","190","test",".","image-keyboard-response","332","236051","0.0-3.0-1.164","true"
"666","ImagesSoccer/VL100.png","188","test",".","image-keyboard-response","334","237219","0.0-3.0-1.165","false"
"874","ImagesDirect/VL110.png","188","test",",","image-keyboard-response","336","238596","0.0-3.0-1.166","true"
"553","ImagesTennis/TR100.png","188","test",".","image-keyboard-response","338","239651","0.0-3.0-1.167","false"
"634","ImagesTennis/TL110.png","188","test",",","image-keyboard-response","340","240787","0.0-3.0-1.168","true"
"490","ImagesSoccer/VR105.png","190","test",".","image-keyboard-response","342","241779","0.0-3.0-1.169","true"
"505","ImagesSoccer/VL102.5.png","188","test",",","image-keyboard-response","344","242787","0.0-3.0-1.170","true"
"649","ImagesDirect/VL100.png","188","test",".","image-keyboard-response","346","243939","0.0-3.0-1.171","false"
"442","ImagesSoccer/VR107.5.png","190","test",".","image-keyboard-response","348","244883","0.0-3.0-1.172","true"
"552","ImagesSoccer/VR97.5.png","190","test",",","image-keyboard-response","350","245939","0.0-3.0-1.173","false"
"586","ImagesSoccer/VR102.5.png","190","test",".","image-keyboard-response","352","247027","0.0-3.0-1.174","true"
"650","ImagesSoccer/VR90.png","190","test",",","image-keyboard-response","354","248179","0.0-3.0-1.175","false"
"1226","ImagesDirect/VR92.5.png","188","test",",","image-keyboard-response","356","249907","0.0-3.0-1.176","true"
"1898","ImagesDirect/VR100.png","190","test",".","image-keyboard-response","358","252307","0.0-3.0-1.177","true"
"1755","ImagesTennis/TR95.png","188","test",",","image-keyboard-response","360","254563","0.0-3.0-1.178","true"
"634","ImagesTennis/TR105.png","190","test",".","image-keyboard-response","362","255700","0.0-3.0-1.179","true"
"954","ImagesTennis/TL102.5.png","190","test",",","image-keyboard-response","364","257156","0.0-3.0-1.180","false"
"777","ImagesDirect/VL107.5.png","188","test",",","image-keyboard-response","366","258435","0.0-3.0-1.181","true"
"1066","ImagesDirect/VL105.png","188","test",",","image-keyboard-response","368","260003","0.0-3.0-1.182","true"
"426","ImagesDirect/VL102.5.png","188","test",",","image-keyboard-response","370","260931","0.0-3.0-1.183","true"
"1033","ImagesSoccer/VL95.png","190","test",".","image-keyboard-response","372","262467","0.0-3.0-1.184","true"
"746","ImagesDirect/VL95.png","190","test",".","image-keyboard-response","374","263715","0.0-3.0-1.185","true"
"890","ImagesDirect/VL92.5.png","190","test",".","image-keyboard-response","376","265107","0.0-3.0-1.186","true"
"1036","ImagesDirect/VR95.png","190","test",",","image-keyboard-response","378","266644","0.0-3.0-1.187","false"
"793","ImagesDirect/VR105.png","190","test",".","image-keyboard-response","380","267939","0.0-3.0-1.188","true"
"1035","ImagesDirect/VR90.png","188","test",",","image-keyboard-response","382","269476","0.0-3.0-1.189","true"
"682","ImagesTennis/TL105.png","190","test",",","image-keyboard-response","384","270659","0.0-3.0-1.190","false"
"506","ImagesDirect/VR102.5.png","190","test",".","image-keyboard-response","386","271667","0.0-3.0-1.191","true"
"538","ImagesSoccer/VL92.5.png","190","test",".","image-keyboard-response","388","272708","0.0-3.0-1.192","true"
"553","ImagesSoccer/VR100.png","190","test",".","image-keyboard-response","390","273763","0.0-3.0-1.193","true"
"699","ImagesTennis/TR110.png","190","test",".","image-keyboard-response","392","274964","0.0-3.0-1.194","true"
"602","ImagesTennis/TR107.5.png","190","test",".","image-keyboard-response","394","276067","0.0-3.0-1.195","true"
"681","ImagesTennis/TL97.5.png","190","test",".","image-keyboard-response","396","277252","0.0-3.0-1.196","true"
"666","ImagesTennis/TL107.5.png","188","test",",","image-keyboard-response","398","278419","0.0-3.0-1.197","true"
"474","ImagesSoccer/VL107.5.png","188","test",",","image-keyboard-response","400","279395","0.0-3.0-1.198","true"
"648","ImagesTennis/TR97.5.png","190","test",",","image-keyboard-response","402","280547","0.0-3.0-1.199","false"
"670","ImagesTennis/TL90.png","190","test",".","image-keyboard-response","404","281719","0.0-3.0-1.200","true"
"666","ImagesSoccer/VL90.png","190","test",".","image-keyboard-response","406","282887","0.0-3.0-1.201","true"
"569","ImagesSoccer/VR110.png","190","test",".","image-keyboard-response","408","283959","0.0-3.0-1.202","true"
"522","ImagesSoccer/VL105.png","188","test",",","image-keyboard-response","410","284983","0.0-3.0-1.203","true"
"745","ImagesTennis/TL95.png","190","test",".","image-keyboard-response","412","286231","0.0-3.0-1.204","true"
"442","ImagesDirect/VR107.5.png","190","test",".","image-keyboard-response","414","287175","0.0-3.0-1.205","true"
"523","ImagesTennis/TR90.png","188","test",",","image-keyboard-response","416","288199","0.0-3.0-1.206","true"
"842","ImagesSoccer/VL97.5.png","190","test",".","image-keyboard-response","418","289543","0.0-3.0-1.207","true"
"665","ImagesSoccer/VR95.png","190","test",",","image-keyboard-response","420","290711","0.0-3.0-1.208","false"
"1129","ImagesTennis/TR102.5.png","188","test",".","image-keyboard-response","422","292343","0.0-3.0-1.209","false"
"714","ImagesTennis/TR92.5.png","190","test",",","image-keyboard-response","424","293559","0.0-3.0-1.210","false"
"1002","ImagesDirect/VL97.5.png","190","test",".","image-keyboard-response","426","295063","0.0-3.0-1.211","true"
"538","ImagesSoccer/VL110.png","188","test",",","image-keyboard-response","428","296103","0.0-3.0-1.212","true"
"762","ImagesTennis/TL92.5.png","190","test",".","image-keyboard-response","430","297367","0.0-3.0-1.213","true"
"683","ImagesSoccer/VR92.5.png","188","test",",","image-keyboard-response","432","298551","0.0-3.0-1.214","true"
"858","ImagesDirect/VL90.png","190","test",".","image-keyboard-response","434","299911","0.0-3.0-1.215","true"
"683","ImagesTennis/TR92.5.png","188","test",",","image-keyboard-response","436","301095","0.0-3.0-1.216","true"
"538","ImagesSoccer/VL102.5.png","188","test",",","image-keyboard-response","438","302135","0.0-3.0-1.217","true"
"570","ImagesSoccer/VL110.png","188","test",",","image-keyboard-response","440","303207","0.0-3.0-1.218","true"
"763","ImagesDirect/VR95.png","188","test",",","image-keyboard-response","442","304471","0.0-3.0-1.219","true"
"633","ImagesTennis/TR95.png","188","test",",","image-keyboard-response","444","305607","0.0-3.0-1.220","true"
"618","ImagesSoccer/VL95.png","190","test",".","image-keyboard-response","446","306727","0.0-3.0-1.221","true"
"650","ImagesSoccer/VR95.png","190","test",",","image-keyboard-response","448","307879","0.0-3.0-1.222","false"
"634","ImagesTennis/TL97.5.png","188","test",".","image-keyboard-response","450","309015","0.0-3.0-1.223","false"
"569","ImagesSoccer/VL90.png","190","test",".","image-keyboard-response","452","310087","0.0-3.0-1.224","true"
"1322","ImagesTennis/TR97.5.png","188","test",",","image-keyboard-response","454","311911","0.0-3.0-1.225","true"
"570","ImagesSoccer/VL100.png","188","test",".","image-keyboard-response","456","312983","0.0-3.0-1.226","false"
"651","ImagesSoccer/VR102.5.png","190","test",".","image-keyboard-response","458","314135","0.0-3.0-1.227","true"
"617","ImagesSoccer/VL107.5.png","188","test",",","image-keyboard-response","460","315255","0.0-3.0-1.228","true"
"522","ImagesSoccer/VR107.5.png","190","test",".","image-keyboard-response","462","316279","0.0-3.0-1.229","true"
"746","ImagesTennis/TR105.png","190","test",".","image-keyboard-response","464","317527","0.0-3.0-1.230","true"
"985","ImagesTennis/TL105.png","188","test",",","image-keyboard-response","466","319015","0.0-3.0-1.231","true"
"618","ImagesDirect/VR110.png","190","test",".","image-keyboard-response","468","320136","0.0-3.0-1.232","true"
"921","ImagesTennis/TR107.5.png","190","test",".","image-keyboard-response","470","321559","0.0-3.0-1.233","true"
"1128","ImagesDirect/VR100.png","190","test",".","image-keyboard-response","472","323191","0.0-3.0-1.234","true"
"505","ImagesSoccer/VR110.png","190","test",".","image-keyboard-response","474","324198","0.0-3.0-1.235","true"
"857","ImagesSoccer/VR97.5.png","188","test",",","image-keyboard-response","476","325559","0.0-3.0-1.236","true"
"1274","ImagesSoccer/VR100.png","190","test",".","image-keyboard-response","478","327335","0.0-3.0-1.237","true"
"2154","ImagesTennis/TL92.5.png","188","test",".","image-keyboard-response","480","329991","0.0-3.0-1.238","false"
"632","ImagesTennis/TL107.5.png","188","test",",","image-keyboard-response","482","331128","0.0-3.0-1.239","true"
"570","ImagesDirect/VL102.5.png","188","test",",","image-keyboard-response","484","332200","0.0-3.0-1.240","true"
"584","ImagesSoccer/VR105.png","190","test",".","image-keyboard-response","486","333287","0.0-3.0-1.241","true"
"763","ImagesTennis/TL90.png","190","test",".","image-keyboard-response","488","334551","0.0-3.0-1.242","true"
"1674","ImagesTennis/TR102.5.png","190","test",".","image-keyboard-response","490","336727","0.0-3.0-1.243","true"
"490","ImagesDirect/VL110.png","188","test",",","image-keyboard-response","492","337719","0.0-3.0-1.244","true"
"474","ImagesDirect/VR107.5.png","190","test",".","image-keyboard-response","494","338695","0.0-3.0-1.245","true"
"506","ImagesDirect/VL107.5.png","188","test",",","image-keyboard-response","496","339703","0.0-3.0-1.246","true"
"1290","ImagesTennis/TR100.png","188","test",".","image-keyboard-response","498","341496","0.0-3.0-1.247","false"
"650","ImagesDirect/VR105.png","190","test",".","image-keyboard-response","500","342650","0.0-3.0-1.248","true"
"651","ImagesSoccer/VR92.5.png","188","test",",","image-keyboard-response","502","343802","0.0-3.0-1.249","true"
"585","ImagesDirect/VL100.png","188","test",".","image-keyboard-response","504","344890","0.0-3.0-1.250","false"
"522","ImagesDirect/VL105.png","188","test",",","image-keyboard-response","506","345914","0.0-3.0-1.251","true"
"841","ImagesSoccer/VR90.png","188","test",",","image-keyboard-response","508","347257","0.0-3.0-1.252","true"
"730","ImagesDirect/VL95.png","188","test",".","image-keyboard-response","510","348490","0.0-3.0-1.253","false"
"634","ImagesDirect/VL90.png","190","test",".","image-keyboard-response","512","349626","0.0-3.0-1.254","true"
"794","ImagesSoccer/VL97.5.png","188","test",".","image-keyboard-response","514","350922","0.0-3.0-1.255","false"
"698","ImagesDirect/VR92.5.png","188","test",",","image-keyboard-response","516","352122","0.0-3.0-1.256","true"
"520","ImagesTennis/TL100.png","188","test",".","image-keyboard-response","518","353145","0.0-3.0-1.257","false"
"537","ImagesTennis/TL110.png","188","test",",","image-keyboard-response","520","354186","0.0-3.0-1.258","true"
"441","ImagesTennis/TL102.5.png","188","test",",","image-keyboard-response","522","355130","0.0-3.0-1.259","true"
"1018","ImagesSoccer/VL92.5.png","190","test",".","image-keyboard-response","524","356650","0.0-3.0-1.260","true"
"522","ImagesDirect/VR102.5.png","190","test",".","image-keyboard-response","526","357674","0.0-3.0-1.261","true"
"1370","ImagesDirect/VL92.5.png","190","test",".","image-keyboard-response","528","359546","0.0-3.0-1.262","true"
"666","ImagesTennis/TR110.png","190","test",".","image-keyboard-response","530","360714","0.0-3.0-1.263","true"
"1450","ImagesTennis/TR90.png","188","test",",","image-keyboard-response","532","362666","0.0-3.0-1.264","true"
"633","ImagesSoccer/VL105.png","188","test",",","image-keyboard-response","534","363802","0.0-3.0-1.265","true"
"1049","ImagesDirect/VR90.png","188","test",",","image-keyboard-response","536","365354","0.0-3.0-1.266","true"
"1467","ImagesDirect/VL97.5.png","188","test",".","image-keyboard-response","538","367322","0.0-3.0-1.267","false"
"826","ImagesTennis/TL95.png","190","test",".","image-keyboard-response","540","368649","0.0-3.0-1.268","true"
"1018","ImagesDirect/VR97.5.png","190","test",",","image-keyboard-response","542","370170","0.0-3.0-1.269","false"
"2922","ImagesCoins/10L105.png","188","test",",","image-keyboard-response","544","373594","0.0-4.0-1.0","true"
"1194","ImagesCoins/10R95.png","188","test",",","image-keyboard-response","546","375290","0.0-4.0-1.1","true"
"922","ImagesCoins/10R105.png","190","test",".","image-keyboard-response","548","376714","0.0-4.0-1.2","true"
"2090","ImagesCoins/10L100.png","188","test",".","image-keyboard-response","550","379306","0.0-4.0-1.3","false"
"1097","ImagesCoins/10R90.png","188","test",",","image-keyboard-response","552","380906","0.0-4.0-1.4","true"
"1131","ImagesCoins/10L90.png","190","test",".","image-keyboard-response","554","382538","0.0-4.0-1.5","true"
"1576","ImagesCoins/10R92.5.png","188","test",",","image-keyboard-response","556","384618","0.0-4.0-1.6","true"
"777","ImagesCoins/10L107.5.png","188","test",",","image-keyboard-response","558","385897","0.0-4.0-1.7","true"
"907","ImagesCoins/10R110.png","190","test",".","image-keyboard-response","560","387306","0.0-4.0-1.8","true"
"779","ImagesCoins/10L110.png","188","test",",","image-keyboard-response","562","388586","0.0-4.0-1.9","true"
"873","ImagesCoins/10R97.5.png","188","test",",","image-keyboard-response","564","389962","0.0-4.0-1.10","true"
"1483","ImagesCoins/10R100.png","190","test",".","image-keyboard-response","566","391947","0.0-4.0-1.11","true"
"1560","ImagesCoins/10R102.5.png","190","test",".","image-keyboard-response","568","394010","0.0-4.0-1.12","true"
"1306","ImagesCoins/10L92.5.png","190","test",".","image-keyboard-response","570","395817","0.0-4.0-1.13","true"
"2331","ImagesCoins/10L97.5.png","190","test",".","image-keyboard-response","572","398650","0.0-4.0-1.14","true"
"1131","ImagesCoins/10L102.5.png","188","test",",","image-keyboard-response","574","400283","0.0-4.0-1.15","true"
"2184","ImagesCoins/10L95.png","188","test",".","image-keyboard-response","576","402969","0.0-4.0-1.16","false"
"984","ImagesCoins/10R107.5.png","190","test",".","image-keyboard-response","578","404457","0.0-4.0-1.17","true"
"1499","ImagesCoins/10R97.5.png","188","test",",","image-keyboard-response","580","406457","0.0-4.0-1.18","true"
"776","ImagesCoins/10L107.5.png","188","test",",","image-keyboard-response","582","407737","0.0-4.0-1.19","true"
"1273","ImagesCoins/10L100.png","188","test",".","image-keyboard-response","584","409513","0.0-4.0-1.20","false"
"936","ImagesCoins/10L95.png","190","test",".","image-keyboard-response","586","410952","0.0-4.0-1.21","true"
"745","ImagesCoins/10R90.png","188","test",",","image-keyboard-response","588","412201","0.0-4.0-1.22","true"
"938","ImagesCoins/10L97.5.png","188","test",".","image-keyboard-response","590","413641","0.0-4.0-1.23","false"
"986","ImagesCoins/10R92.5.png","188","test",",","image-keyboard-response","592","415129","0.0-4.0-1.24","true"
"890","ImagesCoins/10L92.5.png","190","test",".","image-keyboard-response","594","416521","0.0-4.0-1.25","true"
"760","ImagesCoins/10R110.png","190","test",".","image-keyboard-response","596","417785","0.0-4.0-1.26","true"
"697","ImagesCoins/10R102.5.png","190","test",".","image-keyboard-response","598","418985","0.0-4.0-1.27","true"
"729","ImagesCoins/10R105.png","190","test",".","image-keyboard-response","600","420217","0.0-4.0-1.28","true"
"697","ImagesCoins/10L90.png","190","test",".","image-keyboard-response","602","421417","0.0-4.0-1.29","true"
"569","ImagesCoins/10L102.5.png","188","test",",","image-keyboard-response","604","422489","0.0-4.0-1.30","true"
"602","ImagesCoins/10L110.png","188","test",",","image-keyboard-response","606","423593","0.0-4.0-1.31","true"
"922","ImagesCoins/10R95.png","188","test",",","image-keyboard-response","608","425017","0.0-4.0-1.32","true"
"538","ImagesCoins/10L105.png","188","test",",","image-keyboard-response","610","426057","0.0-4.0-1.33","true"
"730","ImagesCoins/10R100.png","188","test",".","image-keyboard-response","612","427289","0.0-4.0-1.34","false"
"1305","ImagesCoins/10R107.5.png","190","test",".","image-keyboard-response","614","429097","0.0-4.0-1.35","true"
"906","ImagesCoins/10R97.5.png","190","test",",","image-keyboard-response","616","430505","0.0-4.0-1.36","false"
"842","ImagesCoins/10L105.png","188","test",",","image-keyboard-response","618","431849","0.0-4.0-1.37","true"
"744","ImagesCoins/10L107.5.png","188","test",",","image-keyboard-response","620","433097","0.0-4.0-1.38","true"
"1163","ImagesCoins/10L97.5.png","190","test",".","image-keyboard-response","622","434761","0.0-4.0-1.39","true"
"570","ImagesCoins/10R90.png","188","test",",","image-keyboard-response","624","435833","0.0-4.0-1.40","true"
"778","ImagesCoins/10R105.png","190","test",".","image-keyboard-response","626","437113","0.0-4.0-1.41","true"
"922","ImagesCoins/10R92.5.png","188","test",",","image-keyboard-response","628","438537","0.0-4.0-1.42","true"
"809","ImagesCoins/10L95.png","190","test",".","image-keyboard-response","630","439849","0.0-4.0-1.43","true"
"970","ImagesCoins/10R100.png","190","test",".","image-keyboard-response","632","441321","0.0-4.0-1.44","true"
"1163","ImagesCoins/10L100.png","188","test",".","image-keyboard-response","634","442985","0.0-4.0-1.45","false"
"888","ImagesCoins/10R95.png","188","test",",","image-keyboard-response","636","444376","0.0-4.0-1.46","true"
"651","ImagesCoins/10R110.png","190","test",".","image-keyboard-response","638","445529","0.0-4.0-1.47","true"
"666","ImagesCoins/10L102.5.png","188","test",",","image-keyboard-response","640","446697","0.0-4.0-1.48","true"
"649","ImagesCoins/10R102.5.png","190","test",".","image-keyboard-response","642","447849","0.0-4.0-1.49","true"
"794","ImagesCoins/10L92.5.png","190","test",".","image-keyboard-response","644","449145","0.0-4.0-1.50","true"
"1449","ImagesCoins/10L110.png","188","test",",","image-keyboard-response","646","451097","0.0-4.0-1.51","true"
"505","ImagesCoins/10R107.5.png","190","test",".","image-keyboard-response","648","452105","0.0-4.0-1.52","true"
"571","ImagesCoins/10L90.png","190","test",".","image-keyboard-response","650","453177","0.0-4.0-1.53","true"
"698","ImagesCoins/10L95.png","190","test",".","image-keyboard-response","652","454377","0.0-4.0-1.54","true"
"681","ImagesCoins/10L100.png","188","test",".","image-keyboard-response","654","455561","0.0-4.0-1.55","false"
"554","ImagesCoins/10L107.5.png","188","test",",","image-keyboard-response","656","456617","0.0-4.0-1.56","true"
"762","ImagesCoins/10L92.5.png","190","test",".","image-keyboard-response","658","457881","0.0-4.0-1.57","true"
"651","ImagesCoins/10R107.5.png","190","test",".","image-keyboard-response","660","459033","0.0-4.0-1.58","true"
"1241","ImagesCoins/10L102.5.png","188","test",",","image-keyboard-response","662","460777","0.0-4.0-1.59","true"
"809","ImagesCoins/10L90.png","190","test",".","image-keyboard-response","664","462089","0.0-4.0-1.60","true"
"954","ImagesCoins/10L97.5.png","188","test",".","image-keyboard-response","666","463545","0.0-4.0-1.61","false"
"1209","ImagesCoins/10R92.5.png","188","test",",","image-keyboard-response","668","465257","0.0-4.0-1.62","true"
"778","ImagesCoins/10R97.5.png","190","test",",","image-keyboard-response","670","466537","0.0-4.0-1.63","false"
"858","ImagesCoins/10L110.png","188","test",",","image-keyboard-response","672","467897","0.0-4.0-1.64","true"
"1081","ImagesCoins/10R90.png","188","test",",","image-keyboard-response","674","469481","0.0-4.0-1.65","true"
"570","ImagesCoins/10R105.png","190","test",".","image-keyboard-response","676","470553","0.0-4.0-1.66","true"
"505","ImagesCoins/10R102.5.png","190","test",".","image-keyboard-response","678","471561","0.0-4.0-1.67","true"
"521","ImagesCoins/10L105.png","188","test",",","image-keyboard-response","680","472585","0.0-4.0-1.68","true"
"442","ImagesCoins/10R110.png","190","test",".","image-keyboard-response","682","473529","0.0-4.0-1.69","true"
"490","ImagesCoins/10R95.png","190","test",",","image-keyboard-response","684","474521","0.0-4.0-1.70","false"
"538","ImagesCoins/10R100.png","190","test",".","image-keyboard-response","686","475561","0.0-4.0-1.71","true"
"1451","ImagesCoins/10L105.png","188","test",",","image-keyboard-response","688","477514","0.0-4.0-1.72","true"
"938","ImagesCoins/10L95.png","190","test",".","image-keyboard-response","690","478953","0.0-4.0-1.73","true"
"475","ImagesCoins/10L107.5.png","188","test",",","image-keyboard-response","692","479930","0.0-4.0-1.74","true"
"697","ImagesCoins/10L97.5.png","190","test",".","image-keyboard-response","694","481129","0.0-4.0-1.75","true"
"570","ImagesCoins/10R107.5.png","190","test",".","image-keyboard-response","696","482201","0.0-4.0-1.76","true"
"506","ImagesCoins/10R97.5.png","190","test",",","image-keyboard-response","698","483209","0.0-4.0-1.77","false"
"1019","ImagesCoins/10L102.5.png","188","test",",","image-keyboard-response","700","484729","0.0-4.0-1.78","true"
"778","ImagesCoins/10L100.png","188","test",".","image-keyboard-response","702","486009","0.0-4.0-1.79","false"
"490","ImagesCoins/10R92.5.png","188","test",",","image-keyboard-response","704","487001","0.0-4.0-1.80","true"
"857","ImagesCoins/10R105.png","190","test",".","image-keyboard-response","706","488361","0.0-4.0-1.81","true"
"1770","ImagesCoins/10R100.png","190","test",".","image-keyboard-response","708","490633","0.0-4.0-1.82","true"
"682","ImagesCoins/10L92.5.png","190","test",".","image-keyboard-response","710","491817","0.0-4.0-1.83","true"
"634","ImagesCoins/10R110.png","190","test",".","image-keyboard-response","712","492953","0.0-4.0-1.84","true"
"585","ImagesCoins/10R90.png","188","test",",","image-keyboard-response","714","494041","0.0-4.0-1.85","true"
"553","ImagesCoins/10R102.5.png","190","test",".","image-keyboard-response","716","495097","0.0-4.0-1.86","true"
"555","ImagesCoins/10L110.png","188","test",",","image-keyboard-response","718","496154","0.0-4.0-1.87","true"
"586","ImagesCoins/10L90.png","190","test",".","image-keyboard-response","720","497241","0.0-4.0-1.88","true"
"555","ImagesCoins/10R95.png","188","test",",","image-keyboard-response","722","498297","0.0-4.0-1.89","true"
