"rt","stimulus","key_press","test_part","correct_response","trial_type","trial_index","time_elapsed","internal_node_id","correct"
"5461","ImagesDirect/VL105.png","188","test",",","image-keyboard-response","4","31394","0.0-3.0-1.0","true"
"1664","ImagesSoccer/VL105.png","188","test",",","image-keyboard-response","6","33562","0.0-3.0-1.1","true"
"968","ImagesDirect/VL110.png","188","test",",","image-keyboard-response","8","35037","0.0-3.0-1.2","true"
"2573","ImagesDirect/VL102.5.png","190","test",",","image-keyboard-response","10","38115","0.0-3.0-1.3","false"
"1992","ImagesTennis/TL95.png","190","test",".","image-keyboard-response","12","40614","0.0-3.0-1.4","true"
"1172","ImagesDirect/VL95.png","188","test",".","image-keyboard-response","14","42289","0.0-3.0-1.5","false"
"4146","ImagesDirect/VR97.5.png","188","test",",","image-keyboard-response","16","46944","0.0-3.0-1.6","true"
"1068","ImagesDirect/VR92.5.png","188","test",",","image-keyboard-response","18","48519","0.0-3.0-1.7","true"
"970","ImagesSoccer/VR90.png","188","test",",","image-keyboard-response","20","49996","0.0-3.0-1.8","true"
"902","ImagesSoccer/VR107.5.png","190","test",".","image-keyboard-response","22","51407","0.0-3.0-1.9","true"
"2006","ImagesDirect/VR95.png","188","test",",","image-keyboard-response","24","53924","0.0-3.0-1.10","true"
"1548","ImagesTennis/TR102.5.png","190","test",".","image-keyboard-response","26","55979","0.0-3.0-1.11","true"
"1122","ImagesDirect/VR110.png","190","test",".","image-keyboard-response","28","57610","0.0-3.0-1.12","true"
"1210","ImagesDirect/VL107.5.png","188","test",",","image-keyboard-response","30","59329","0.0-3.0-1.13","true"
"1342","ImagesSoccer/VR110.png","190","test",".","image-keyboard-response","32","61179","0.0-3.0-1.14","true"
"1476","ImagesSoccer/VR92.5.png","188","test",",","image-keyboard-response","34","63164","0.0-3.0-1.15","true"
"1006","ImagesTennis/TL100.png","190","test",".","image-keyboard-response","36","64674","0.0-3.0-1.16","true"
"1052","ImagesSoccer/VL102.5.png","188","test",",","image-keyboard-response","38","66230","0.0-3.0-1.17","true"
"1010","ImagesSoccer/VR105.png","190","test",".","image-keyboard-response","40","67751","0.0-3.0-1.18","true"
"1319","ImagesSoccer/VL90.png","190","test",".","image-keyboard-response","42","69573","0.0-3.0-1.19","true"
"1967","ImagesDirect/VL100.png","190","test",".","image-keyboard-response","44","72051","0.0-3.0-1.20","true"
"1296","ImagesTennis/TR105.png","190","test",".","image-keyboard-response","46","73850","0.0-3.0-1.21","true"
"1303","ImagesDirect/VR90.png","188","test",",","image-keyboard-response","48","75659","0.0-3.0-1.22","true"
"1059","ImagesDirect/VR102.5.png","190","test",".","image-keyboard-response","50","77227","0.0-3.0-1.23","true"
"1498","ImagesTennis/TR100.png","188","test",".","image-keyboard-response","52","79233","0.0-3.0-1.24","false"
"819","ImagesSoccer/VL97.5.png","190","test",".","image-keyboard-response","54","80559","0.0-3.0-1.25","true"
"1357","ImagesSoccer/VL100.png","188","test",".","image-keyboard-response","56","82419","0.0-3.0-1.26","false"
"1028","ImagesSoccer/VR95.png","188","test",",","image-keyboard-response","58","83954","0.0-3.0-1.27","true"
"2393","ImagesTennis/TL107.5.png","190","test",",","image-keyboard-response","60","86854","0.0-3.0-1.28","false"
"2051","ImagesDirect/VR105.png","190","test",".","image-keyboard-response","62","89411","0.0-3.0-1.29","true"
"2534","ImagesSoccer/VL95.png","190","test",".","image-keyboard-response","64","92452","0.0-3.0-1.30","true"
"922","ImagesTennis/TR110.png","190","test",".","image-keyboard-response","66","93880","0.0-3.0-1.31","true"
"1274","ImagesTennis/TL110.png","188","test",",","image-keyboard-response","68","95659","0.0-3.0-1.32","true"
"1224","ImagesTennis/TL105.png","190","test",",","image-keyboard-response","70","97401","0.0-3.0-1.33","false"
"835","ImagesTennis/TL90.png","190","test",".","image-keyboard-response","72","98743","0.0-3.0-1.34","true"
"1594","ImagesDirect/VL97.5.png","188","test",".","image-keyboard-response","74","100849","0.0-3.0-1.35","false"
"1406","ImagesSoccer/VR102.5.png","190","test",".","image-keyboard-response","76","102766","0.0-3.0-1.36","true"
"3670","ImagesDirect/VL92.5.png","190","test",".","image-keyboard-response","78","106946","0.0-3.0-1.37","true"
"1686","ImagesDirect/VR107.5.png","190","test",".","image-keyboard-response","80","109140","0.0-3.0-1.38","true"
"2651","ImagesSoccer/VR97.5.png","190","test",",","image-keyboard-response","82","112295","0.0-3.0-1.39","false"
"3127","ImagesTennis/TL102.5.png","190","test",",","image-keyboard-response","84","115928","0.0-3.0-1.40","false"
"1305","ImagesTennis/TR92.5.png","188","test",",","image-keyboard-response","86","117744","0.0-3.0-1.41","true"
"1224","ImagesSoccer/VL92.5.png","190","test",".","image-keyboard-response","88","119472","0.0-3.0-1.42","true"
"1775","ImagesTennis/TL92.5.png","190","test",".","image-keyboard-response","90","121758","0.0-3.0-1.43","true"
"1047","ImagesDirect/VL90.png","190","test",".","image-keyboard-response","92","123310","0.0-3.0-1.44","true"
"988","ImagesTennis/TR97.5.png","188","test",",","image-keyboard-response","94","124804","0.0-3.0-1.45","true"
"1039","ImagesSoccer/VL110.png","190","test",",","image-keyboard-response","96","126346","0.0-3.0-1.46","false"
"1290","ImagesTennis/TR90.png","188","test",",","image-keyboard-response","98","128146","0.0-3.0-1.47","true"
"1670","ImagesSoccer/VL107.5.png","188","test",",","image-keyboard-response","100","130318","0.0-3.0-1.48","true"
"1016","ImagesTennis/TL97.5.png","190","test",".","image-keyboard-response","102","131841","0.0-3.0-1.49","true"
"1083","ImagesTennis/TR107.5.png","190","test",".","image-keyboard-response","104","133429","0.0-3.0-1.50","true"
"1118","ImagesDirect/VR100.png","190","test",".","image-keyboard-response","106","135052","0.0-3.0-1.51","true"
"1059","ImagesTennis/TR95.png","188","test",",","image-keyboard-response","108","136616","0.0-3.0-1.52","true"
"1984","ImagesSoccer/VR100.png","188","test",".","image-keyboard-response","110","139112","0.0-3.0-1.53","false"
"1640","ImagesTennis/TL105.png","188","test",",","image-keyboard-response","112","141257","0.0-3.0-1.54","true"
"2204","ImagesSoccer/VL92.5.png","188","test",".","image-keyboard-response","114","143966","0.0-3.0-1.55","false"
"932","ImagesSoccer/VL97.5.png","190","test",".","image-keyboard-response","116","145404","0.0-3.0-1.56","true"
"698","ImagesDirect/VL90.png","190","test",".","image-keyboard-response","118","146610","0.0-3.0-1.57","true"
"712","ImagesDirect/VL100.png","188","test",".","image-keyboard-response","120","147834","0.0-3.0-1.58","false"
"680","ImagesDirect/VL110.png","188","test",",","image-keyboard-response","122","149025","0.0-3.0-1.59","true"
"465","ImagesDirect/VR105.png","190","test",".","image-keyboard-response","124","150001","0.0-3.0-1.60","true"
"1052","ImagesSoccer/VR97.5.png","188","test",",","image-keyboard-response","126","151560","0.0-3.0-1.61","true"
"715","ImagesSoccer/VR107.5.png","190","test",".","image-keyboard-response","128","152783","0.0-3.0-1.62","true"
"600","ImagesSoccer/VL90.png","190","test",".","image-keyboard-response","130","153886","0.0-3.0-1.63","true"
"649","ImagesSoccer/VL110.png","188","test",",","image-keyboard-response","132","155044","0.0-3.0-1.64","true"
"554","ImagesTennis/TR92.5.png","188","test",",","image-keyboard-response","134","156109","0.0-3.0-1.65","true"
"643","ImagesTennis/TR102.5.png","188","test",".","image-keyboard-response","136","157256","0.0-3.0-1.66","false"
"534","ImagesTennis/TL95.png","190","test",".","image-keyboard-response","138","158298","0.0-3.0-1.67","true"
"1181","ImagesTennis/TL97.5.png","190","test",".","image-keyboard-response","140","159985","0.0-3.0-1.68","true"
"944","ImagesSoccer/VR110.png","190","test",".","image-keyboard-response","142","161438","0.0-3.0-1.69","true"
"869","ImagesDirect/VR100.png","190","test",".","image-keyboard-response","144","162814","0.0-3.0-1.70","true"
"2880","ImagesSoccer/VL95.png","188","test",".","image-keyboard-response","146","166201","0.0-3.0-1.71","false"
"799","ImagesTennis/TR110.png","190","test",".","image-keyboard-response","148","167507","0.0-3.0-1.72","true"
"725","ImagesTennis/TL92.5.png","190","test",".","image-keyboard-response","150","168742","0.0-3.0-1.73","true"
"646","ImagesDirect/VL97.5.png","188","test",".","image-keyboard-response","152","169895","0.0-3.0-1.74","false"
"916","ImagesDirect/VR107.5.png","190","test",".","image-keyboard-response","154","171321","0.0-3.0-1.75","true"
"807","ImagesDirect/VL95.png","188","test",".","image-keyboard-response","156","172638","0.0-3.0-1.76","false"
"780","ImagesDirect/VL92.5.png","188","test",".","image-keyboard-response","158","173922","0.0-3.0-1.77","false"
"770","ImagesDirect/VR95.png","190","test",",","image-keyboard-response","160","175201","0.0-3.0-1.78","false"
"586","ImagesDirect/VL107.5.png","188","test",",","image-keyboard-response","162","176295","0.0-3.0-1.79","true"
"802","ImagesDirect/VL105.png","188","test",",","image-keyboard-response","164","177606","0.0-3.0-1.80","true"
"1092","ImagesSoccer/VR90.png","188","test",",","image-keyboard-response","166","179206","0.0-3.0-1.81","true"
"5950","ImagesDirect/VR97.5.png","188","test",",","image-keyboard-response","168","185667","0.0-3.0-1.82","true"
"1322","ImagesDirect/VR90.png","188","test",",","image-keyboard-response","170","187497","0.0-3.0-1.83","true"
"557","ImagesSoccer/VL102.5.png","190","test",",","image-keyboard-response","172","188561","0.0-3.0-1.84","false"
"700","ImagesDirect/VR92.5.png","190","test",",","image-keyboard-response","174","189769","0.0-3.0-1.85","false"
"831","ImagesSoccer/VL107.5.png","190","test",",","image-keyboard-response","176","191111","0.0-3.0-1.86","false"
"1215","ImagesSoccer/VR100.png","188","test",".","image-keyboard-response","178","192833","0.0-3.0-1.87","false"
"978","ImagesDirect/VR110.png","190","test",".","image-keyboard-response","180","194322","0.0-3.0-1.88","true"
"713","ImagesSoccer/VR105.png","190","test",".","image-keyboard-response","182","195540","0.0-3.0-1.89","true"
"858","ImagesTennis/TR90.png","188","test",",","image-keyboard-response","184","196906","0.0-3.0-1.90","true"
"1154","ImagesSoccer/VR92.5.png","188","test",",","image-keyboard-response","186","198571","0.0-3.0-1.91","true"
"666","ImagesTennis/TL100.png","190","test",".","image-keyboard-response","188","199743","0.0-3.0-1.92","true"
"553","ImagesTennis/TR100.png","188","test",".","image-keyboard-response","190","200800","0.0-3.0-1.93","false"
"867","ImagesSoccer/VL100.png","190","test",".","image-keyboard-response","192","202171","0.0-3.0-1.94","true"
"646","ImagesTennis/TL110.png","188","test",",","image-keyboard-response","194","203324","0.0-3.0-1.95","true"
"471","ImagesTennis/TL90.png","190","test",".","image-keyboard-response","196","204303","0.0-3.0-1.96","true"
"583","ImagesTennis/TR95.png","188","test",",","image-keyboard-response","198","205395","0.0-3.0-1.97","true"
"762","ImagesSoccer/VR95.png","188","test",",","image-keyboard-response","200","206664","0.0-3.0-1.98","true"
"616","ImagesTennis/TR97.5.png","188","test",",","image-keyboard-response","202","207787","0.0-3.0-1.99","true"
"744","ImagesTennis/TR105.png","188","test",".","image-keyboard-response","204","209035","0.0-3.0-1.100","false"
"2303","ImagesTennis/TL107.5.png","188","test",",","image-keyboard-response","206","211842","0.0-3.0-1.101","true"
"529","ImagesTennis/TR107.5.png","190","test",".","image-keyboard-response","208","212876","0.0-3.0-1.102","true"
"794","ImagesSoccer/VL105.png","188","test",",","image-keyboard-response","210","214175","0.0-3.0-1.103","true"
"614","ImagesDirect/VR102.5.png","190","test",".","image-keyboard-response","212","215298","0.0-3.0-1.104","true"
"717","ImagesDirect/VL102.5.png","188","test",",","image-keyboard-response","214","216522","0.0-3.0-1.105","true"
"1542","ImagesSoccer/VR102.5.png","190","test",".","image-keyboard-response","216","218571","0.0-3.0-1.106","true"
"920","ImagesTennis/TL102.5.png","188","test",",","image-keyboard-response","218","220001","0.0-3.0-1.107","true"
"793","ImagesTennis/TL107.5.png","188","test",",","image-keyboard-response","220","221303","0.0-3.0-1.108","true"
"551","ImagesDirect/VL107.5.png","190","test",",","image-keyboard-response","222","222364","0.0-3.0-1.109","false"
"659","ImagesTennis/TL105.png","190","test",",","image-keyboard-response","224","223528","0.0-3.0-1.110","false"
"875","ImagesDirect/VL95.png","188","test",".","image-keyboard-response","226","224906","0.0-3.0-1.111","false"
"661","ImagesDirect/VL90.png","190","test",".","image-keyboard-response","228","226074","0.0-3.0-1.112","true"
"737","ImagesDirect/VR97.5.png","188","test",",","image-keyboard-response","230","227317","0.0-3.0-1.113","true"
"819","ImagesTennis/TR90.png","188","test",",","image-keyboard-response","232","228645","0.0-3.0-1.114","true"
"805","ImagesSoccer/VR90.png","188","test",",","image-keyboard-response","234","229957","0.0-3.0-1.115","true"
"721","ImagesSoccer/VR100.png","190","test",".","image-keyboard-response","236","231187","0.0-3.0-1.116","true"
"673","ImagesSoccer/VL90.png","188","test",".","image-keyboard-response","238","232368","0.0-3.0-1.117","false"
"667","ImagesTennis/TR92.5.png","188","test",",","image-keyboard-response","240","233543","0.0-3.0-1.118","true"
"474","ImagesSoccer/VR107.5.png","190","test",".","image-keyboard-response","242","234522","0.0-3.0-1.119","true"
"542","ImagesDirect/VR107.5.png","190","test",".","image-keyboard-response","244","235572","0.0-3.0-1.120","true"
"701","ImagesSoccer/VL102.5.png","188","test",",","image-keyboard-response","246","236786","0.0-3.0-1.121","true"
"1198","ImagesDirect/VR92.5.png","188","test",",","image-keyboard-response","248","238492","0.0-3.0-1.122","true"
"517","ImagesSoccer/VL95.png","190","test",".","image-keyboard-response","250","239518","0.0-3.0-1.123","true"
"503","ImagesTennis/TL102.5.png","190","test",",","image-keyboard-response","252","240526","0.0-3.0-1.124","false"
"577","ImagesDirect/VL100.png","188","test",".","image-keyboard-response","254","241611","0.0-3.0-1.125","false"
"1300","ImagesDirect/VR90.png","188","test",",","image-keyboard-response","256","243418","0.0-3.0-1.126","true"
"802","ImagesSoccer/VR95.png","188","test",",","image-keyboard-response","258","244729","0.0-3.0-1.127","true"
"603","ImagesTennis/TR95.png","188","test",",","image-keyboard-response","260","245843","0.0-3.0-1.128","true"
"558","ImagesTennis/TR110.png","190","test",".","image-keyboard-response","262","246907","0.0-3.0-1.129","true"
"793","ImagesDirect/VL102.5.png","190","test",",","image-keyboard-response","264","248205","0.0-3.0-1.130","false"
"917","ImagesSoccer/VL100.png","188","test",".","image-keyboard-response","266","249633","0.0-3.0-1.131","false"
"558","ImagesTennis/TR102.5.png","188","test",".","image-keyboard-response","268","250699","0.0-3.0-1.132","false"
"698","ImagesTennis/TR107.5.png","190","test",".","image-keyboard-response","270","251906","0.0-3.0-1.133","true"
"1214","ImagesSoccer/VL105.png","188","test",",","image-keyboard-response","272","253630","0.0-3.0-1.134","true"
"642","ImagesDirect/VR105.png","190","test",".","image-keyboard-response","274","254778","0.0-3.0-1.135","true"
"532","ImagesDirect/VR95.png","190","test",",","image-keyboard-response","276","255824","0.0-3.0-1.136","false"
"1294","ImagesTennis/TL97.5.png","190","test",".","image-keyboard-response","278","257623","0.0-3.0-1.137","true"
"3505","ImagesDirect/VR100.png","188","test",".","image-keyboard-response","280","261636","0.0-3.0-1.138","false"
"1289","ImagesDirect/VR102.5.png","188","test",".","image-keyboard-response","282","263435","0.0-3.0-1.139","false"
"504","ImagesSoccer/VR97.5.png","190","test",",","image-keyboard-response","284","264445","0.0-3.0-1.140","false"
"405","ImagesSoccer/VR105.png","190","test",".","image-keyboard-response","286","265358","0.0-3.0-1.141","true"
"831","ImagesSoccer/VL92.5.png","188","test",".","image-keyboard-response","288","266699","0.0-3.0-1.142","false"
"825","ImagesTennis/TL110.png","188","test",",","image-keyboard-response","290","268034","0.0-3.0-1.143","true"
"594","ImagesTennis/TR105.png","190","test",".","image-keyboard-response","292","269133","0.0-3.0-1.144","true"
"1630","ImagesDirect/VL92.5.png","188","test",".","image-keyboard-response","294","271269","0.0-3.0-1.145","false"
"835","ImagesSoccer/VL97.5.png","188","test",".","image-keyboard-response","296","272609","0.0-3.0-1.146","false"
"662","ImagesDirect/VR110.png","190","test",".","image-keyboard-response","298","273789","0.0-3.0-1.147","true"
"1378","ImagesTennis/TR100.png","190","test",".","image-keyboard-response","300","275671","0.0-3.0-1.148","true"
"779","ImagesSoccer/VL110.png","190","test",",","image-keyboard-response","302","276956","0.0-3.0-1.149","false"
"524","ImagesSoccer/VR102.5.png","190","test",".","image-keyboard-response","304","277991","0.0-3.0-1.150","true"
"1176","ImagesTennis/TL95.png","190","test",".","image-keyboard-response","306","279679","0.0-3.0-1.151","true"
"636","ImagesSoccer/VR92.5.png","188","test",",","image-keyboard-response","308","280819","0.0-3.0-1.152","true"
"980","ImagesTennis/TL100.png","190","test",".","image-keyboard-response","310","282308","0.0-3.0-1.153","true"
"476","ImagesTennis/TL90.png","190","test",".","image-keyboard-response","312","283292","0.0-3.0-1.154","true"
"481","ImagesTennis/TL92.5.png","190","test",".","image-keyboard-response","314","284278","0.0-3.0-1.155","true"
"511","ImagesDirect/VL110.png","188","test",",","image-keyboard-response","316","285295","0.0-3.0-1.156","true"
"586","ImagesDirect/VL97.5.png","188","test",".","image-keyboard-response","318","286387","0.0-3.0-1.157","false"
"825","ImagesSoccer/VL107.5.png","188","test",",","image-keyboard-response","320","287718","0.0-3.0-1.158","true"
"510","ImagesDirect/VL105.png","188","test",",","image-keyboard-response","322","288736","0.0-3.0-1.159","true"
"755","ImagesTennis/TR97.5.png","190","test",",","image-keyboard-response","324","289997","0.0-3.0-1.160","false"
"741","ImagesSoccer/VR110.png","190","test",".","image-keyboard-response","326","291243","0.0-3.0-1.161","true"
"551","ImagesTennis/TL90.png","190","test",".","image-keyboard-response","328","292304","0.0-3.0-1.162","true"
"523","ImagesSoccer/VL110.png","188","test",",","image-keyboard-response","330","293338","0.0-3.0-1.163","true"
"689","ImagesSoccer/VR102.5.png","188","test",".","image-keyboard-response","332","294536","0.0-3.0-1.164","false"
"428","ImagesDirect/VR102.5.png","190","test",".","image-keyboard-response","334","295473","0.0-3.0-1.165","true"
"619","ImagesSoccer/VL105.png","188","test",",","image-keyboard-response","336","296600","0.0-3.0-1.166","true"
"325","ImagesSoccer/VR90.png","188","test",",","image-keyboard-response","338","297430","0.0-3.0-1.167","true"
"619","ImagesSoccer/VR97.5.png","188","test",",","image-keyboard-response","340","298558","0.0-3.0-1.168","true"
"516","ImagesSoccer/VR95.png","188","test",",","image-keyboard-response","342","299579","0.0-3.0-1.169","true"
"348","ImagesSoccer/VR105.png","188","test",".","image-keyboard-response","344","300435","0.0-3.0-1.170","false"
"534","ImagesDirect/VR95.png","190","test",",","image-keyboard-response","346","301478","0.0-3.0-1.171","false"
"574","ImagesSoccer/VR107.5.png","188","test",".","image-keyboard-response","348","302555","0.0-3.0-1.172","false"
"522","ImagesSoccer/VL97.5.png","190","test",".","image-keyboard-response","350","303586","0.0-3.0-1.173","true"
"1238","ImagesDirect/VR90.png","188","test",",","image-keyboard-response","352","305330","0.0-3.0-1.174","true"
"635","ImagesSoccer/VL92.5.png","190","test",".","image-keyboard-response","354","306469","0.0-3.0-1.175","true"
"732","ImagesTennis/TL107.5.png","190","test",",","image-keyboard-response","356","307710","0.0-3.0-1.176","false"
"637","ImagesTennis/TL105.png","190","test",",","image-keyboard-response","358","308850","0.0-3.0-1.177","false"
"624","ImagesTennis/TR107.5.png","190","test",".","image-keyboard-response","360","309982","0.0-3.0-1.178","true"
"1011","ImagesDirect/VL95.png","188","test",".","image-keyboard-response","362","311498","0.0-3.0-1.179","false"
"2194","ImagesTennis/TL100.png","190","test",".","image-keyboard-response","364","314197","0.0-3.0-1.180","true"
"1248","ImagesDirect/VR100.png","190","test",".","image-keyboard-response","366","315955","0.0-3.0-1.181","true"
"637","ImagesDirect/VR105.png","190","test",".","image-keyboard-response","368","317103","0.0-3.0-1.182","true"
"744","ImagesDirect/VL90.png","190","test",".","image-keyboard-response","370","318350","0.0-3.0-1.183","true"
"671","ImagesSoccer/VR100.png","188","test",".","image-keyboard-response","372","319537","0.0-3.0-1.184","false"
"564","ImagesSoccer/VR110.png","190","test",".","image-keyboard-response","374","320611","0.0-3.0-1.185","true"
"1415","ImagesDirect/VR107.5.png","190","test",".","image-keyboard-response","376","322536","0.0-3.0-1.186","true"
"535","ImagesDirect/VL107.5.png","188","test",",","image-keyboard-response","378","323581","0.0-3.0-1.187","true"
"827","ImagesSoccer/VL95.png","188","test",".","image-keyboard-response","380","324912","0.0-3.0-1.188","false"
"950","ImagesTennis/TL110.png","188","test",",","image-keyboard-response","382","326370","0.0-3.0-1.189","true"
"662","ImagesSoccer/VR92.5.png","188","test",",","image-keyboard-response","384","327538","0.0-3.0-1.190","true"
"648","ImagesTennis/TR97.5.png","188","test",",","image-keyboard-response","386","328693","0.0-3.0-1.191","true"
"494","ImagesTennis/TR90.png","188","test",",","image-keyboard-response","388","329692","0.0-3.0-1.192","true"
"633","ImagesSoccer/VL102.5.png","188","test",",","image-keyboard-response","390","330834","0.0-3.0-1.193","true"
"712","ImagesTennis/TR100.png","188","test",".","image-keyboard-response","392","332057","0.0-3.0-1.194","false"
"354","ImagesDirect/VL110.png","188","test",",","image-keyboard-response","394","332920","0.0-3.0-1.195","true"
"305","ImagesDirect/VL100.png","188","test",".","image-keyboard-response","396","333740","0.0-3.0-1.196","false"
"318","ImagesTennis/TR92.5.png","188","test",",","image-keyboard-response","398","334566","0.0-3.0-1.197","true"
"762","ImagesSoccer/VL107.5.png","188","test",",","image-keyboard-response","400","335840","0.0-3.0-1.198","true"
"494","ImagesDirect/VL105.png","188","test",",","image-keyboard-response","402","336846","0.0-3.0-1.199","true"
"429","ImagesDirect/VL97.5.png","188","test",".","image-keyboard-response","404","337787","0.0-3.0-1.200","false"
"586","ImagesTennis/TL97.5.png","190","test",".","image-keyboard-response","406","338881","0.0-3.0-1.201","true"
"790","ImagesDirect/VR97.5.png","190","test",",","image-keyboard-response","408","340179","0.0-3.0-1.202","false"
"879","ImagesDirect/VR92.5.png","188","test",",","image-keyboard-response","410","341562","0.0-3.0-1.203","true"
"634","ImagesTennis/TR95.png","188","test",",","image-keyboard-response","412","342704","0.0-3.0-1.204","true"
"1713","ImagesTennis/TL92.5.png","190","test",".","image-keyboard-response","414","344927","0.0-3.0-1.205","true"
"770","ImagesTennis/TL95.png","190","test",".","image-keyboard-response","416","346202","0.0-3.0-1.206","true"
"758","ImagesDirect/VL102.5.png","188","test",",","image-keyboard-response","418","347464","0.0-3.0-1.207","true"
"973","ImagesDirect/VL92.5.png","188","test",".","image-keyboard-response","420","348942","0.0-3.0-1.208","false"
"1260","ImagesTennis/TR105.png","190","test",".","image-keyboard-response","422","350710","0.0-3.0-1.209","true"
"1505","ImagesDirect/VR110.png","190","test",".","image-keyboard-response","424","352721","0.0-3.0-1.210","true"
"2096","ImagesSoccer/VL100.png","190","test",".","image-keyboard-response","426","355321","0.0-3.0-1.211","true"
"721","ImagesTennis/TL102.5.png","190","test",",","image-keyboard-response","428","356552","0.0-3.0-1.212","false"
"2548","ImagesSoccer/VL90.png","190","test",".","image-keyboard-response","430","359607","0.0-3.0-1.213","true"
"731","ImagesTennis/TR110.png","190","test",".","image-keyboard-response","432","360848","0.0-3.0-1.214","true"
"1179","ImagesTennis/TR102.5.png","188","test",".","image-keyboard-response","434","362533","0.0-3.0-1.215","false"
"505","ImagesTennis/TR95.png","188","test",",","image-keyboard-response","436","363545","0.0-3.0-1.216","true"
"535","ImagesTennis/TL107.5.png","190","test",",","image-keyboard-response","438","364591","0.0-3.0-1.217","false"
"527","ImagesSoccer/VL105.png","188","test",",","image-keyboard-response","440","365623","0.0-3.0-1.218","true"
"513","ImagesDirect/VR110.png","190","test",".","image-keyboard-response","442","366647","0.0-3.0-1.219","true"
"18768","ImagesDirect/VL92.5.png","190","test",".","image-keyboard-response","444","385921","0.0-3.0-1.220","true"
"847","ImagesTennis/TR110.png","188","test",".","image-keyboard-response","446","387275","0.0-3.0-1.221","false"
"620","ImagesDirect/VL90.png","190","test",".","image-keyboard-response","448","388402","0.0-3.0-1.222","true"
"9004","ImagesSoccer/VL90.png","190","test",".","image-keyboard-response","450","397914","0.0-3.0-1.223","true"
"644","ImagesSoccer/VR100.png","190","test",".","image-keyboard-response","452","399064","0.0-3.0-1.224","true"
"422","ImagesSoccer/VR107.5.png","190","test",".","image-keyboard-response","454","399996","0.0-3.0-1.225","true"
"512","ImagesSoccer/VR97.5.png","190","test",",","image-keyboard-response","456","401013","0.0-3.0-1.226","false"
"505","ImagesSoccer/VL97.5.png","190","test",".","image-keyboard-response","458","402025","0.0-3.0-1.227","true"
"414","ImagesSoccer/VR95.png","190","test",",","image-keyboard-response","460","402945","0.0-3.0-1.228","false"
"786","ImagesDirect/VR102.5.png","190","test",".","image-keyboard-response","462","404236","0.0-3.0-1.229","true"
"521","ImagesTennis/TL97.5.png","190","test",".","image-keyboard-response","464","405261","0.0-3.0-1.230","true"
"378","ImagesSoccer/VL102.5.png","190","test",",","image-keyboard-response","466","406148","0.0-3.0-1.231","false"
"573","ImagesTennis/TL110.png","188","test",",","image-keyboard-response","468","407233","0.0-3.0-1.232","true"
"567","ImagesDirect/VR97.5.png","188","test",",","image-keyboard-response","470","408308","0.0-3.0-1.233","true"
"589","ImagesTennis/TR105.png","190","test",".","image-keyboard-response","472","409410","0.0-3.0-1.234","true"
"761","ImagesTennis/TR100.png","190","test",".","image-keyboard-response","474","410681","0.0-3.0-1.235","true"
"771","ImagesDirect/VL95.png","188","test",".","image-keyboard-response","476","411962","0.0-3.0-1.236","false"
"476","ImagesDirect/VR100.png","190","test",".","image-keyboard-response","478","412946","0.0-3.0-1.237","true"
"535","ImagesDirect/VR107.5.png","190","test",".","image-keyboard-response","480","413985","0.0-3.0-1.238","true"
"927","ImagesTennis/TL105.png","188","test",",","image-keyboard-response","482","415418","0.0-3.0-1.239","true"
"438","ImagesDirect/VR105.png","190","test",".","image-keyboard-response","484","416369","0.0-3.0-1.240","true"
"411","ImagesTennis/TL92.5.png","190","test",".","image-keyboard-response","486","417285","0.0-3.0-1.241","true"
"737","ImagesSoccer/VR102.5.png","190","test",".","image-keyboard-response","488","418532","0.0-3.0-1.242","true"
"570","ImagesDirect/VL107.5.png","188","test",",","image-keyboard-response","490","419611","0.0-3.0-1.243","true"
"604","ImagesDirect/VL110.png","188","test",",","image-keyboard-response","492","420724","0.0-3.0-1.244","true"
"506","ImagesSoccer/VL95.png","190","test",".","image-keyboard-response","494","421737","0.0-3.0-1.245","true"
"1585","ImagesDirect/VL100.png","188","test",".","image-keyboard-response","496","423825","0.0-3.0-1.246","false"
"589","ImagesSoccer/VL110.png","188","test",",","image-keyboard-response","498","424919","0.0-3.0-1.247","true"
"431","ImagesTennis/TR102.5.png","190","test",".","image-keyboard-response","500","425862","0.0-3.0-1.248","true"
"486","ImagesSoccer/VR90.png","188","test",",","image-keyboard-response","502","426857","0.0-3.0-1.249","true"
"361","ImagesSoccer/VR110.png","188","test",".","image-keyboard-response","504","427721","0.0-3.0-1.250","false"
"1020","ImagesSoccer/VL100.png","190","test",".","image-keyboard-response","506","429250","0.0-3.0-1.251","true"
"518","ImagesDirect/VR92.5.png","190","test",",","image-keyboard-response","508","430273","0.0-3.0-1.252","false"
"478","ImagesDirect/VL105.png","188","test",",","image-keyboard-response","510","431258","0.0-3.0-1.253","true"
"542","ImagesTennis/TR92.5.png","190","test",",","image-keyboard-response","512","432313","0.0-3.0-1.254","false"
"626","ImagesDirect/VL102.5.png","188","test",",","image-keyboard-response","514","433441","0.0-3.0-1.255","true"
"760","ImagesTennis/TR90.png","188","test",",","image-keyboard-response","516","434704","0.0-3.0-1.256","true"
"1052","ImagesDirect/VR95.png","188","test",",","image-keyboard-response","518","436263","0.0-3.0-1.257","true"
"510","ImagesSoccer/VL92.5.png","190","test",".","image-keyboard-response","520","437280","0.0-3.0-1.258","true"
"994","ImagesDirect/VR90.png","190","test",",","image-keyboard-response","522","438785","0.0-3.0-1.259","false"
"505","ImagesTennis/TL90.png","190","test",".","image-keyboard-response","524","439795","0.0-3.0-1.260","true"
"989","ImagesTennis/TR97.5.png","190","test",",","image-keyboard-response","526","441289","0.0-3.0-1.261","false"
"495","ImagesTennis/TR107.5.png","190","test",".","image-keyboard-response","528","442295","0.0-3.0-1.262","true"
"881","ImagesTennis/TL102.5.png","190","test",",","image-keyboard-response","530","443681","0.0-3.0-1.263","false"
"835","ImagesTennis/TL100.png","190","test",".","image-keyboard-response","532","445025","0.0-3.0-1.264","true"
"788","ImagesDirect/VL97.5.png","188","test",".","image-keyboard-response","534","446319","0.0-3.0-1.265","false"
"796","ImagesSoccer/VR105.png","190","test",".","image-keyboard-response","536","447626","0.0-3.0-1.266","true"
"778","ImagesSoccer/VL107.5.png","188","test",",","image-keyboard-response","538","448908","0.0-3.0-1.267","true"
"775","ImagesSoccer/VR92.5.png","188","test",",","image-keyboard-response","540","450195","0.0-3.0-1.268","true"
"473","ImagesTennis/TL95.png","190","test",".","image-keyboard-response","542","451174","0.0-3.0-1.269","true"
"6015","ImagesCoins/10R95.png","188","test",",","image-keyboard-response","544","457696","0.0-4.0-1.0","true"
"2436","ImagesCoins/10L97.5.png","190","test",".","image-keyboard-response","546","460637","0.0-4.0-1.1","true"
"3935","ImagesCoins/10R102.5.png","190","test",".","image-keyboard-response","548","465076","0.0-4.0-1.2","true"
"2963","ImagesCoins/10R105.png","190","test",".","image-keyboard-response","550","468544","0.0-4.0-1.3","true"
"1658","ImagesCoins/10L105.png","188","test",",","image-keyboard-response","552","470708","0.0-4.0-1.4","true"
"1190","ImagesCoins/10R97.5.png","188","test",",","image-keyboard-response","554","472410","0.0-4.0-1.5","true"
"2314","ImagesCoins/10L107.5.png","188","test",",","image-keyboard-response","556","475233","0.0-4.0-1.6","true"
"3942","ImagesCoins/10L100.png","188","test",".","image-keyboard-response","558","479682","0.0-4.0-1.7","false"
"1360","ImagesCoins/10L102.5.png","188","test",",","image-keyboard-response","560","481551","0.0-4.0-1.8","true"
"661","ImagesCoins/10L92.5.png","188","test",".","image-keyboard-response","562","482722","0.0-4.0-1.9","false"
"2146","ImagesCoins/10R92.5.png","188","test",",","image-keyboard-response","564","485376","0.0-4.0-1.10","true"
"4611","ImagesCoins/10R90.png","188","test",",","image-keyboard-response","566","490492","0.0-4.0-1.11","true"
"4323","ImagesCoins/10L110.png","188","test",",","image-keyboard-response","568","495325","0.0-4.0-1.12","true"
"4609","ImagesCoins/10L90.png","190","test",".","image-keyboard-response","570","500441","0.0-4.0-1.13","true"
"6941","ImagesCoins/10R110.png","190","test",".","image-keyboard-response","572","507892","0.0-4.0-1.14","true"
"4887","ImagesCoins/10R107.5.png","190","test",".","image-keyboard-response","574","513288","0.0-4.0-1.15","true"
"5090","ImagesCoins/10R100.png","190","test",".","image-keyboard-response","576","518892","0.0-4.0-1.16","true"
"4050","ImagesCoins/10L95.png","190","test",".","image-keyboard-response","578","523451","0.0-4.0-1.17","true"
"663","ImagesCoins/10R110.png","190","test",".","image-keyboard-response","580","524625","0.0-4.0-1.18","true"
"1365","ImagesCoins/10L107.5.png","188","test",",","image-keyboard-response","582","526495","0.0-4.0-1.19","true"
"1455","ImagesCoins/10R97.5.png","188","test",",","image-keyboard-response","584","528455","0.0-4.0-1.20","true"
"972","ImagesCoins/10R92.5.png","188","test",",","image-keyboard-response","586","529942","0.0-4.0-1.21","true"
"750","ImagesCoins/10R90.png","188","test",",","image-keyboard-response","588","531200","0.0-4.0-1.22","true"
"1325","ImagesCoins/10L90.png","188","test",".","image-keyboard-response","590","533036","0.0-4.0-1.23","false"
"551","ImagesCoins/10R105.png","190","test",".","image-keyboard-response","592","534091","0.0-4.0-1.24","true"
"878","ImagesCoins/10L100.png","190","test",".","image-keyboard-response","594","535479","0.0-4.0-1.25","true"
"931","ImagesCoins/10L105.png","188","test",",","image-keyboard-response","596","536922","0.0-4.0-1.26","true"
"757","ImagesCoins/10L95.png","188","test",".","image-keyboard-response","598","538188","0.0-4.0-1.27","false"
"800","ImagesCoins/10R95.png","188","test",",","image-keyboard-response","600","539501","0.0-4.0-1.28","true"
"738","ImagesCoins/10L97.5.png","188","test",".","image-keyboard-response","602","540748","0.0-4.0-1.29","false"
"408","ImagesCoins/10R100.png","188","test",".","image-keyboard-response","604","541668","0.0-4.0-1.30","false"
"610","ImagesCoins/10L102.5.png","188","test",",","image-keyboard-response","606","542790","0.0-4.0-1.31","true"
"541","ImagesCoins/10R107.5.png","190","test",".","image-keyboard-response","608","543841","0.0-4.0-1.32","true"
"881","ImagesCoins/10L92.5.png","190","test",".","image-keyboard-response","610","545228","0.0-4.0-1.33","true"
"564","ImagesCoins/10L110.png","188","test",",","image-keyboard-response","612","546304","0.0-4.0-1.34","true"
"513","ImagesCoins/10R102.5.png","190","test",".","image-keyboard-response","614","547324","0.0-4.0-1.35","true"
"539","ImagesCoins/10L107.5.png","188","test",",","image-keyboard-response","616","548370","0.0-4.0-1.36","true"
"974","ImagesCoins/10L90.png","190","test",".","image-keyboard-response","618","549854","0.0-4.0-1.37","true"
"1595","ImagesCoins/10L95.png","190","test",".","image-keyboard-response","620","551956","0.0-4.0-1.38","true"
"1263","ImagesCoins/10R92.5.png","188","test",",","image-keyboard-response","622","553723","0.0-4.0-1.39","true"
"570","ImagesCoins/10R105.png","190","test",".","image-keyboard-response","624","554800","0.0-4.0-1.40","true"
"409","ImagesCoins/10R107.5.png","190","test",".","image-keyboard-response","626","555719","0.0-4.0-1.41","true"
"375","ImagesCoins/10R110.png","190","test",".","image-keyboard-response","628","556605","0.0-4.0-1.42","true"
"1181","ImagesCoins/10R95.png","188","test",",","image-keyboard-response","630","558291","0.0-4.0-1.43","true"
"437","ImagesCoins/10L100.png","190","test",".","image-keyboard-response","632","559238","0.0-4.0-1.44","true"
"1497","ImagesCoins/10R97.5.png","188","test",",","image-keyboard-response","634","561247","0.0-4.0-1.45","true"
"681","ImagesCoins/10R102.5.png","190","test",".","image-keyboard-response","636","562442","0.0-4.0-1.46","true"
"427","ImagesCoins/10R100.png","190","test",".","image-keyboard-response","638","563378","0.0-4.0-1.47","true"
"624","ImagesCoins/10L110.png","188","test",",","image-keyboard-response","640","564515","0.0-4.0-1.48","true"
"568","ImagesCoins/10L105.png","188","test",",","image-keyboard-response","642","565590","0.0-4.0-1.49","true"
"841","ImagesCoins/10R90.png","188","test",",","image-keyboard-response","644","566935","0.0-4.0-1.50","true"
"610","ImagesCoins/10L92.5.png","190","test",".","image-keyboard-response","646","568051","0.0-4.0-1.51","true"
"505","ImagesCoins/10L102.5.png","188","test",",","image-keyboard-response","648","569066","0.0-4.0-1.52","true"
"824","ImagesCoins/10L97.5.png","190","test",".","image-keyboard-response","650","570394","0.0-4.0-1.53","true"
"528","ImagesCoins/10R102.5.png","190","test",".","image-keyboard-response","652","571428","0.0-4.0-1.54","true"
"731","ImagesCoins/10R100.png","190","test",".","image-keyboard-response","654","572672","0.0-4.0-1.55","true"
"764","ImagesCoins/10R105.png","190","test",".","image-keyboard-response","656","573944","0.0-4.0-1.56","true"
"727","ImagesCoins/10L100.png","190","test",".","image-keyboard-response","658","575177","0.0-4.0-1.57","true"
"624","ImagesCoins/10L110.png","188","test",",","image-keyboard-response","660","576315","0.0-4.0-1.58","true"
"715","ImagesCoins/10R97.5.png","188","test",",","image-keyboard-response","662","577535","0.0-4.0-1.59","true"
"660","ImagesCoins/10R95.png","188","test",",","image-keyboard-response","664","578701","0.0-4.0-1.60","true"
"570","ImagesCoins/10L95.png","188","test",".","image-keyboard-response","666","579781","0.0-4.0-1.61","false"
"925","ImagesCoins/10L90.png","188","test",".","image-keyboard-response","668","581215","0.0-4.0-1.62","false"
"873","ImagesCoins/10L105.png","188","test",",","image-keyboard-response","670","582594","0.0-4.0-1.63","true"
"620","ImagesCoins/10R90.png","188","test",",","image-keyboard-response","672","583720","0.0-4.0-1.64","true"
"709","ImagesCoins/10R92.5.png","190","test",",","image-keyboard-response","674","584939","0.0-4.0-1.65","false"
"652","ImagesCoins/10L97.5.png","188","test",".","image-keyboard-response","676","586105","0.0-4.0-1.66","false"
"558","ImagesCoins/10L107.5.png","188","test",",","image-keyboard-response","678","587169","0.0-4.0-1.67","true"
"458","ImagesCoins/10L92.5.png","188","test",".","image-keyboard-response","680","588139","0.0-4.0-1.68","false"
"459","ImagesCoins/10L102.5.png","188","test",",","image-keyboard-response","682","589110","0.0-4.0-1.69","true"
"433","ImagesCoins/10R107.5.png","190","test",".","image-keyboard-response","684","590053","0.0-4.0-1.70","true"
"443","ImagesCoins/10R110.png","190","test",".","image-keyboard-response","686","591002","0.0-4.0-1.71","true"
"549","ImagesCoins/10L102.5.png","188","test",",","image-keyboard-response","688","592059","0.0-4.0-1.72","true"
"558","ImagesCoins/10L107.5.png","188","test",",","image-keyboard-response","690","593129","0.0-4.0-1.73","true"
"419","ImagesCoins/10L105.png","188","test",",","image-keyboard-response","692","594059","0.0-4.0-1.74","true"
"364","ImagesCoins/10R92.5.png","190","test",",","image-keyboard-response","694","594934","0.0-4.0-1.75","false"
"755","ImagesCoins/10R90.png","188","test",",","image-keyboard-response","696","596196","0.0-4.0-1.76","true"
"515","ImagesCoins/10R107.5.png","190","test",".","image-keyboard-response","698","597216","0.0-4.0-1.77","true"
"294","ImagesCoins/10L90.png","190","test",".","image-keyboard-response","700","598014","0.0-4.0-1.78","true"
"1168","ImagesCoins/10R105.png","190","test",".","image-keyboard-response","702","599689","0.0-4.0-1.79","true"
"626","ImagesCoins/10L110.png","188","test",",","image-keyboard-response","704","600827","0.0-4.0-1.80","true"
"611","ImagesCoins/10L92.5.png","190","test",".","image-keyboard-response","706","601941","0.0-4.0-1.81","true"
"692","ImagesCoins/10L100.png","190","test",".","image-keyboard-response","708","603143","0.0-4.0-1.82","true"
"701","ImagesCoins/10R95.png","190","test",",","image-keyboard-response","710","604351","0.0-4.0-1.83","false"
"484","ImagesCoins/10L97.5.png","190","test",".","image-keyboard-response","712","605346","0.0-4.0-1.84","true"
"1491","ImagesCoins/10R97.5.png","190","test",",","image-keyboard-response","714","607342","0.0-4.0-1.85","false"
"451","ImagesCoins/10L95.png","190","test",".","image-keyboard-response","716","608301","0.0-4.0-1.86","true"
"450","ImagesCoins/10R100.png","190","test",".","image-keyboard-response","718","609261","0.0-4.0-1.87","true"
"568","ImagesCoins/10R102.5.png","190","test",".","image-keyboard-response","720","610338","0.0-4.0-1.88","true"
"370","ImagesCoins/10R110.png","190","test",".","image-keyboard-response","722","611221","0.0-4.0-1.89","true"
