"rt","stimulus","key_press","test_part","correct_response","trial_type","trial_index","time_elapsed","internal_node_id","correct"
"2871","ImagesTennis/TR100.png","190","test",".","image-keyboard-response","4","120512","0.0-3.0-1.0","true"
"57","ImagesSoccer/VL110.png","188","test",",","image-keyboard-response","6","121072","0.0-3.0-1.1","true"
"583","ImagesTennis/TR95.png","190","test",",","image-keyboard-response","8","122158","0.0-3.0-1.2","false"
"2548","ImagesSoccer/VR105.png","188","test",".","image-keyboard-response","10","125210","0.0-3.0-1.3","false"
"3246","ImagesSoccer/VL92.5.png","190","test",".","image-keyboard-response","12","128958","0.0-3.0-1.4","true"
"1953","ImagesTennis/TR105.png","190","test",".","image-keyboard-response","14","131414","0.0-3.0-1.5","true"
"1589","ImagesDirect/VL107.5.png","188","test",",","image-keyboard-response","16","133506","0.0-3.0-1.6","true"
"2303","ImagesSoccer/VL102.5.png","188","test",",","image-keyboard-response","18","136312","0.0-3.0-1.7","true"
"1218","ImagesDirect/VR95.png","190","test",",","image-keyboard-response","20","138033","0.0-3.0-1.8","false"
"1378","ImagesTennis/TR102.5.png","190","test",".","image-keyboard-response","22","139914","0.0-3.0-1.9","true"
"2696","ImagesSoccer/VL97.5.png","190","test",".","image-keyboard-response","24","143113","0.0-3.0-1.10","true"
"1702","ImagesSoccer/VL105.png","188","test",",","image-keyboard-response","26","145318","0.0-3.0-1.11","true"
"1148","ImagesTennis/TL92.5.png","190","test",".","image-keyboard-response","28","146969","0.0-3.0-1.12","true"
"1048","ImagesTennis/TL95.png","190","test",".","image-keyboard-response","30","148520","0.0-3.0-1.13","true"
"919","ImagesSoccer/VR107.5.png","190","test",".","image-keyboard-response","32","149943","0.0-3.0-1.14","true"
"1510","ImagesDirect/VR100.png","190","test",".","image-keyboard-response","34","151957","0.0-3.0-1.15","true"
"1859","ImagesSoccer/VR92.5.png","188","test",",","image-keyboard-response","36","154320","0.0-3.0-1.16","true"
"1012","ImagesDirect/VR90.png","190","test",",","image-keyboard-response","38","155834","0.0-3.0-1.17","false"
"890","ImagesSoccer/VL95.png","190","test",".","image-keyboard-response","40","157228","0.0-3.0-1.18","true"
"940","ImagesDirect/VL90.png","190","test",".","image-keyboard-response","42","158669","0.0-3.0-1.19","true"
"1371","ImagesDirect/VL102.5.png","188","test",",","image-keyboard-response","44","160543","0.0-3.0-1.20","true"
"933","ImagesDirect/VR102.5.png","190","test",".","image-keyboard-response","46","161979","0.0-3.0-1.21","true"
"738","ImagesDirect/VR92.5.png","190","test",",","image-keyboard-response","48","163220","0.0-3.0-1.22","false"
"857","ImagesTennis/TL90.png","190","test",".","image-keyboard-response","50","164580","0.0-3.0-1.23","true"
"1168","ImagesTennis/TL100.png","190","test",".","image-keyboard-response","52","166251","0.0-3.0-1.24","true"
"888","ImagesSoccer/VL107.5.png","188","test",",","image-keyboard-response","54","167642","0.0-3.0-1.25","true"
"898","ImagesTennis/TR107.5.png","190","test",".","image-keyboard-response","56","169043","0.0-3.0-1.26","true"
"1012","ImagesTennis/TR110.png","190","test",".","image-keyboard-response","58","170558","0.0-3.0-1.27","true"
"1619","ImagesSoccer/VR97.5.png","190","test",",","image-keyboard-response","60","172680","0.0-3.0-1.28","false"
"734","ImagesDirect/VR107.5.png","190","test",".","image-keyboard-response","62","173917","0.0-3.0-1.29","true"
"1453","ImagesTennis/TL105.png","188","test",",","image-keyboard-response","64","175873","0.0-3.0-1.30","true"
"1878","ImagesDirect/VL92.5.png","190","test",".","image-keyboard-response","66","178254","0.0-3.0-1.31","true"
"1241","ImagesTennis/TL102.5.png","188","test",",","image-keyboard-response","68","179998","0.0-3.0-1.32","true"
"1784","ImagesTennis/TL107.5.png","188","test",",","image-keyboard-response","70","182287","0.0-3.0-1.33","true"
"1670","ImagesDirect/VL95.png","188","test",".","image-keyboard-response","72","184461","0.0-3.0-1.34","false"
"1289","ImagesTennis/TL97.5.png","190","test",".","image-keyboard-response","74","186253","0.0-3.0-1.35","true"
"1035","ImagesSoccer/VR100.png","190","test",".","image-keyboard-response","76","187793","0.0-3.0-1.36","true"
"3621","ImagesDirect/VR97.5.png","190","test",",","image-keyboard-response","78","191916","0.0-3.0-1.37","false"
"1235","ImagesTennis/TR92.5.png","188","test",",","image-keyboard-response","80","193654","0.0-3.0-1.38","true"
"1639","ImagesDirect/VL100.png","188","test",".","image-keyboard-response","82","195796","0.0-3.0-1.39","false"
"2041","ImagesSoccer/VL90.png","190","test",".","image-keyboard-response","84","198340","0.0-3.0-1.40","true"
"1609","ImagesSoccer/VL100.png","188","test",".","image-keyboard-response","86","200452","0.0-3.0-1.41","false"
"633","ImagesSoccer/VR110.png","190","test",".","image-keyboard-response","88","201588","0.0-3.0-1.42","true"
"1006","ImagesSoccer/VR90.png","188","test",",","image-keyboard-response","90","203097","0.0-3.0-1.43","true"
"718","ImagesDirect/VL97.5.png","190","test",".","image-keyboard-response","92","204318","0.0-3.0-1.44","true"
"1306","ImagesTennis/TR90.png","188","test",",","image-keyboard-response","94","206126","0.0-3.0-1.45","true"
"995","ImagesTennis/TR97.5.png","190","test",",","image-keyboard-response","96","207624","0.0-3.0-1.46","false"
"902","ImagesDirect/VR105.png","190","test",".","image-keyboard-response","98","209029","0.0-3.0-1.47","true"
"1022","ImagesDirect/VL105.png","188","test",",","image-keyboard-response","100","210554","0.0-3.0-1.48","true"
"789","ImagesSoccer/VR102.5.png","190","test",".","image-keyboard-response","102","211846","0.0-3.0-1.49","true"
"945","ImagesDirect/VL110.png","188","test",",","image-keyboard-response","104","213294","0.0-3.0-1.50","true"
"1165","ImagesTennis/TL110.png","188","test",",","image-keyboard-response","106","214961","0.0-3.0-1.51","true"
"902","ImagesDirect/VR110.png","190","test",".","image-keyboard-response","108","216367","0.0-3.0-1.52","true"
"2220","ImagesSoccer/VR95.png","188","test",",","image-keyboard-response","110","219089","0.0-3.0-1.53","true"
"866","ImagesDirect/VL92.5.png","190","test",".","image-keyboard-response","112","220459","0.0-3.0-1.54","true"
"906","ImagesSoccer/VL107.5.png","188","test",",","image-keyboard-response","114","221867","0.0-3.0-1.55","true"
"1238","ImagesTennis/TR97.5.png","188","test",",","image-keyboard-response","116","223608","0.0-3.0-1.56","true"
"1169","ImagesSoccer/VR90.png","188","test",",","image-keyboard-response","118","225280","0.0-3.0-1.57","true"
"802","ImagesTennis/TR107.5.png","190","test",".","image-keyboard-response","120","226584","0.0-3.0-1.58","true"
"1389","ImagesDirect/VR110.png","190","test",".","image-keyboard-response","122","228476","0.0-3.0-1.59","true"
"731","ImagesDirect/VL107.5.png","188","test",",","image-keyboard-response","124","229710","0.0-3.0-1.60","true"
"1071","ImagesTennis/TL102.5.png","188","test",",","image-keyboard-response","126","231284","0.0-3.0-1.61","true"
"708","ImagesSoccer/VR107.5.png","190","test",".","image-keyboard-response","128","232495","0.0-3.0-1.62","true"
"959","ImagesDirect/VR95.png","190","test",",","image-keyboard-response","130","233957","0.0-3.0-1.63","false"
"665","ImagesSoccer/VR105.png","190","test",".","image-keyboard-response","132","235125","0.0-3.0-1.64","true"
"1034","ImagesSoccer/VL95.png","188","test",".","image-keyboard-response","134","236662","0.0-3.0-1.65","false"
"1213","ImagesSoccer/VR97.5.png","188","test",",","image-keyboard-response","136","238378","0.0-3.0-1.66","true"
"1967","ImagesTennis/TL92.5.png","190","test",".","image-keyboard-response","138","240848","0.0-3.0-1.67","true"
"1119","ImagesTennis/TL105.png","188","test",",","image-keyboard-response","140","242470","0.0-3.0-1.68","true"
"682","ImagesDirect/VR102.5.png","190","test",".","image-keyboard-response","142","243655","0.0-3.0-1.69","true"
"640","ImagesTennis/TR102.5.png","190","test",".","image-keyboard-response","144","244798","0.0-3.0-1.70","true"
"2789","ImagesDirect/VL95.png","190","test",".","image-keyboard-response","146","248090","0.0-3.0-1.71","true"
"1223","ImagesDirect/VR97.5.png","190","test",",","image-keyboard-response","148","249816","0.0-3.0-1.72","false"
"736","ImagesTennis/TR90.png","188","test",",","image-keyboard-response","150","251054","0.0-3.0-1.73","true"
"1821","ImagesSoccer/VL100.png","188","test",".","image-keyboard-response","152","253379","0.0-3.0-1.74","false"
"637","ImagesSoccer/VR95.png","190","test",",","image-keyboard-response","154","254518","0.0-3.0-1.75","false"
"818","ImagesSoccer/VL90.png","188","test",".","image-keyboard-response","156","255839","0.0-3.0-1.76","false"
"932","ImagesSoccer/VR110.png","190","test",".","image-keyboard-response","158","257274","0.0-3.0-1.77","true"
"834","ImagesSoccer/VL105.png","188","test",",","image-keyboard-response","160","258611","0.0-3.0-1.78","true"
"814","ImagesTennis/TL95.png","190","test",".","image-keyboard-response","162","259928","0.0-3.0-1.79","true"
"1178","ImagesTennis/TL107.5.png","188","test",",","image-keyboard-response","164","261609","0.0-3.0-1.80","true"
"784","ImagesDirect/VR105.png","190","test",".","image-keyboard-response","166","262896","0.0-3.0-1.81","true"
"1376","ImagesTennis/TR105.png","190","test",".","image-keyboard-response","168","264775","0.0-3.0-1.82","true"
"1308","ImagesTennis/TL97.5.png","190","test",".","image-keyboard-response","170","266586","0.0-3.0-1.83","true"
"1431","ImagesTennis/TL100.png","190","test",".","image-keyboard-response","172","268520","0.0-3.0-1.84","true"
"788","ImagesTennis/TR92.5.png","188","test",",","image-keyboard-response","174","269811","0.0-3.0-1.85","true"
"793","ImagesTennis/TR100.png","190","test",".","image-keyboard-response","176","271107","0.0-3.0-1.86","true"
"682","ImagesSoccer/VL102.5.png","188","test",",","image-keyboard-response","178","272293","0.0-3.0-1.87","true"
"648","ImagesTennis/TR110.png","190","test",".","image-keyboard-response","180","273444","0.0-3.0-1.88","true"
"778","ImagesDirect/VR92.5.png","188","test",",","image-keyboard-response","182","274725","0.0-3.0-1.89","true"
"1778","ImagesSoccer/VR100.png","190","test",".","image-keyboard-response","184","277006","0.0-3.0-1.90","true"
"1289","ImagesDirect/VL90.png","190","test",".","image-keyboard-response","186","278798","0.0-3.0-1.91","true"
"640","ImagesSoccer/VL97.5.png","188","test",".","image-keyboard-response","188","279940","0.0-3.0-1.92","false"
"1272","ImagesTennis/TL90.png","190","test",".","image-keyboard-response","190","281716","0.0-3.0-1.93","true"
"874","ImagesDirect/VL105.png","188","test",",","image-keyboard-response","192","283093","0.0-3.0-1.94","true"
"1813","ImagesTennis/TR95.png","188","test",",","image-keyboard-response","194","285408","0.0-3.0-1.95","true"
"1494","ImagesSoccer/VR92.5.png","190","test",",","image-keyboard-response","196","287405","0.0-3.0-1.96","false"
"784","ImagesDirect/VL100.png","188","test",".","image-keyboard-response","198","288692","0.0-3.0-1.97","false"
"852","ImagesDirect/VL102.5.png","188","test",",","image-keyboard-response","200","290047","0.0-3.0-1.98","true"
"716","ImagesSoccer/VR102.5.png","190","test",".","image-keyboard-response","202","291266","0.0-3.0-1.99","true"
"791","ImagesDirect/VL110.png","188","test",",","image-keyboard-response","204","292560","0.0-3.0-1.100","true"
"1339","ImagesDirect/VR107.5.png","190","test",".","image-keyboard-response","206","294402","0.0-3.0-1.101","true"
"897","ImagesDirect/VR90.png","190","test",",","image-keyboard-response","208","295802","0.0-3.0-1.102","false"
"675","ImagesSoccer/VL110.png","188","test",",","image-keyboard-response","210","296980","0.0-3.0-1.103","true"
"3713","ImagesDirect/VL97.5.png","190","test",".","image-keyboard-response","212","301195","0.0-3.0-1.104","true"
"860","ImagesTennis/TL110.png","188","test",",","image-keyboard-response","214","302558","0.0-3.0-1.105","true"
"801","ImagesDirect/VR100.png","190","test",".","image-keyboard-response","216","303862","0.0-3.0-1.106","true"
"1417","ImagesSoccer/VL92.5.png","190","test",".","image-keyboard-response","218","305782","0.0-3.0-1.107","true"
"804","ImagesDirect/VL105.png","188","test",",","image-keyboard-response","220","307089","0.0-3.0-1.108","true"
"842","ImagesTennis/TR110.png","190","test",".","image-keyboard-response","222","308433","0.0-3.0-1.109","true"
"707","ImagesSoccer/VR107.5.png","190","test",".","image-keyboard-response","224","309642","0.0-3.0-1.110","true"
"818","ImagesDirect/VR100.png","190","test",".","image-keyboard-response","226","310963","0.0-3.0-1.111","true"
"1598","ImagesDirect/VL92.5.png","188","test",".","image-keyboard-response","228","313064","0.0-3.0-1.112","false"
"721","ImagesDirect/VL102.5.png","188","test",",","image-keyboard-response","230","314289","0.0-3.0-1.113","true"
"785","ImagesSoccer/VL107.5.png","188","test",",","image-keyboard-response","232","315577","0.0-3.0-1.114","true"
"668","ImagesTennis/TR105.png","190","test",".","image-keyboard-response","234","316748","0.0-3.0-1.115","true"
"1479","ImagesSoccer/VR97.5.png","188","test",",","image-keyboard-response","236","318730","0.0-3.0-1.116","true"
"3838","ImagesDirect/VR97.5.png","190","test",",","image-keyboard-response","238","323070","0.0-3.0-1.117","false"
"2088","ImagesTennis/TL92.5.png","190","test",".","image-keyboard-response","240","325662","0.0-3.0-1.118","true"
"1337","ImagesTennis/TL95.png","190","test",".","image-keyboard-response","242","327502","0.0-3.0-1.119","true"
"796","ImagesTennis/TR90.png","188","test",",","image-keyboard-response","244","328801","0.0-3.0-1.120","true"
"1483","ImagesSoccer/VL90.png","188","test",".","image-keyboard-response","246","330787","0.0-3.0-1.121","false"
"1498","ImagesSoccer/VR92.5.png","188","test",",","image-keyboard-response","248","332788","0.0-3.0-1.122","true"
"821","ImagesSoccer/VL95.png","188","test",".","image-keyboard-response","250","334112","0.0-3.0-1.123","false"
"1312","ImagesTennis/TL97.5.png","188","test",".","image-keyboard-response","252","335926","0.0-3.0-1.124","false"
"1196","ImagesDirect/VL95.png","188","test",".","image-keyboard-response","254","337625","0.0-3.0-1.125","false"
"964","ImagesSoccer/VL97.5.png","188","test",".","image-keyboard-response","256","339092","0.0-3.0-1.126","false"
"938","ImagesDirect/VR105.png","190","test",".","image-keyboard-response","258","340533","0.0-3.0-1.127","true"
"1247","ImagesDirect/VR90.png","188","test",",","image-keyboard-response","260","342283","0.0-3.0-1.128","true"
"880","ImagesDirect/VL100.png","188","test",".","image-keyboard-response","262","343666","0.0-3.0-1.129","false"
"662","ImagesDirect/VR92.5.png","190","test",",","image-keyboard-response","264","344831","0.0-3.0-1.130","false"
"668","ImagesTennis/TL100.png","188","test",".","image-keyboard-response","266","346002","0.0-3.0-1.131","false"
"2049","ImagesDirect/VL90.png","190","test",".","image-keyboard-response","268","348554","0.0-3.0-1.132","true"
"942","ImagesTennis/TR95.png","188","test",",","image-keyboard-response","270","349999","0.0-3.0-1.133","true"
"1380","ImagesSoccer/VL100.png","188","test",".","image-keyboard-response","272","351882","0.0-3.0-1.134","false"
"1119","ImagesSoccer/VL102.5.png","188","test",",","image-keyboard-response","274","353503","0.0-3.0-1.135","true"
"871","ImagesSoccer/VL105.png","188","test",",","image-keyboard-response","276","354877","0.0-3.0-1.136","true"
"1363","ImagesTennis/TR100.png","190","test",".","image-keyboard-response","278","356743","0.0-3.0-1.137","true"
"3799","ImagesDirect/VR95.png","188","test",",","image-keyboard-response","280","361043","0.0-3.0-1.138","true"
"1262","ImagesDirect/VL107.5.png","190","test",",","image-keyboard-response","282","362808","0.0-3.0-1.139","false"
"2540","ImagesSoccer/VR102.5.png","188","test",".","image-keyboard-response","284","365851","0.0-3.0-1.140","false"
"1555","ImagesTennis/TL102.5.png","188","test",",","image-keyboard-response","286","367909","0.0-3.0-1.141","true"
"957","ImagesSoccer/VL110.png","188","test",",","image-keyboard-response","288","369369","0.0-3.0-1.142","true"
"924","ImagesTennis/TL107.5.png","188","test",",","image-keyboard-response","290","370796","0.0-3.0-1.143","true"
"1125","ImagesTennis/TL90.png","190","test",".","image-keyboard-response","292","372424","0.0-3.0-1.144","true"
"869","ImagesDirect/VL97.5.png","188","test",".","image-keyboard-response","294","373796","0.0-3.0-1.145","false"
"921","ImagesSoccer/VR100.png","188","test",".","image-keyboard-response","296","375219","0.0-3.0-1.146","false"
"742","ImagesSoccer/VR90.png","190","test",",","image-keyboard-response","298","376464","0.0-3.0-1.147","false"
"626","ImagesDirect/VL110.png","188","test",",","image-keyboard-response","300","377592","0.0-3.0-1.148","true"
"852","ImagesDirect/VR102.5.png","190","test",".","image-keyboard-response","302","378946","0.0-3.0-1.149","true"
"921","ImagesSoccer/VR105.png","190","test",".","image-keyboard-response","304","380369","0.0-3.0-1.150","true"
"990","ImagesTennis/TL105.png","188","test",",","image-keyboard-response","306","381861","0.0-3.0-1.151","true"
"1137","ImagesTennis/TR107.5.png","190","test",".","image-keyboard-response","308","383501","0.0-3.0-1.152","true"
"962","ImagesSoccer/VR95.png","190","test",",","image-keyboard-response","310","384966","0.0-3.0-1.153","false"
"846","ImagesDirect/VR107.5.png","190","test",".","image-keyboard-response","312","386315","0.0-3.0-1.154","true"
"598","ImagesSoccer/VR110.png","190","test",".","image-keyboard-response","314","387416","0.0-3.0-1.155","true"
"855","ImagesTennis/TR92.5.png","188","test",",","image-keyboard-response","316","388774","0.0-3.0-1.156","true"
"990","ImagesDirect/VR110.png","190","test",".","image-keyboard-response","318","390266","0.0-3.0-1.157","true"
"935","ImagesSoccer/VL92.5.png","190","test",".","image-keyboard-response","320","391704","0.0-3.0-1.158","true"
"2387","ImagesTennis/TR97.5.png","190","test",",","image-keyboard-response","322","394594","0.0-3.0-1.159","false"
"700","ImagesTennis/TL110.png","188","test",",","image-keyboard-response","324","395797","0.0-3.0-1.160","true"
"619","ImagesTennis/TR102.5.png","190","test",".","image-keyboard-response","326","396919","0.0-3.0-1.161","true"
"1041","ImagesSoccer/VR90.png","190","test",",","image-keyboard-response","328","398463","0.0-3.0-1.162","false"
"719","ImagesTennis/TL90.png","188","test",".","image-keyboard-response","330","399685","0.0-3.0-1.163","false"
"1206","ImagesDirect/VR110.png","190","test",".","image-keyboard-response","332","401394","0.0-3.0-1.164","true"
"1975","ImagesSoccer/VL90.png","190","test",".","image-keyboard-response","334","403872","0.0-3.0-1.165","true"
"973","ImagesDirect/VR92.5.png","188","test",",","image-keyboard-response","336","405348","0.0-3.0-1.166","true"
"2051","ImagesSoccer/VL92.5.png","190","test",".","image-keyboard-response","338","407902","0.0-3.0-1.167","true"
"1129","ImagesSoccer/VR105.png","190","test",".","image-keyboard-response","340","409533","0.0-3.0-1.168","true"
"835","ImagesSoccer/VL100.png","188","test",".","image-keyboard-response","342","410870","0.0-3.0-1.169","false"
"671","ImagesTennis/TL100.png","188","test",".","image-keyboard-response","344","412044","0.0-3.0-1.170","false"
"577","ImagesSoccer/VR107.5.png","190","test",".","image-keyboard-response","346","413124","0.0-3.0-1.171","true"
"659","ImagesTennis/TL110.png","188","test",",","image-keyboard-response","348","414285","0.0-3.0-1.172","true"
"704","ImagesDirect/VR107.5.png","190","test",".","image-keyboard-response","350","415492","0.0-3.0-1.173","true"
"1134","ImagesSoccer/VL97.5.png","188","test",".","image-keyboard-response","352","417129","0.0-3.0-1.174","false"
"1132","ImagesTennis/TR95.png","190","test",",","image-keyboard-response","354","418764","0.0-3.0-1.175","false"
"684","ImagesTennis/TL105.png","188","test",",","image-keyboard-response","356","419950","0.0-3.0-1.176","true"
"698","ImagesDirect/VR105.png","190","test",".","image-keyboard-response","358","421151","0.0-3.0-1.177","true"
"748","ImagesSoccer/VR110.png","190","test",".","image-keyboard-response","360","422403","0.0-3.0-1.178","true"
"1187","ImagesTennis/TR100.png","190","test",".","image-keyboard-response","362","424092","0.0-3.0-1.179","true"
"933","ImagesDirect/VL100.png","188","test",".","image-keyboard-response","364","425528","0.0-3.0-1.180","false"
"844","ImagesDirect/VL92.5.png","190","test",".","image-keyboard-response","366","426875","0.0-3.0-1.181","true"
"892","ImagesDirect/VR102.5.png","190","test",".","image-keyboard-response","368","428270","0.0-3.0-1.182","true"
"872","ImagesDirect/VR100.png","190","test",".","image-keyboard-response","370","429645","0.0-3.0-1.183","true"
"1073","ImagesTennis/TL97.5.png","188","test",".","image-keyboard-response","372","431221","0.0-3.0-1.184","false"
"929","ImagesDirect/VL102.5.png","188","test",",","image-keyboard-response","374","432652","0.0-3.0-1.185","true"
"805","ImagesSoccer/VR102.5.png","190","test",".","image-keyboard-response","376","433960","0.0-3.0-1.186","true"
"902","ImagesSoccer/VL105.png","188","test",",","image-keyboard-response","378","435364","0.0-3.0-1.187","true"
"657","ImagesSoccer/VL110.png","188","test",",","image-keyboard-response","380","436524","0.0-3.0-1.188","true"
"1505","ImagesDirect/VR95.png","188","test",",","image-keyboard-response","382","438531","0.0-3.0-1.189","true"
"929","ImagesTennis/TL102.5.png","188","test",",","image-keyboard-response","384","439962","0.0-3.0-1.190","true"
"903","ImagesTennis/TL92.5.png","190","test",".","image-keyboard-response","386","441367","0.0-3.0-1.191","true"
"697","ImagesDirect/VL107.5.png","188","test",",","image-keyboard-response","388","442566","0.0-3.0-1.192","true"
"1232","ImagesTennis/TR102.5.png","190","test",".","image-keyboard-response","390","444301","0.0-3.0-1.193","true"
"1378","ImagesSoccer/VL95.png","190","test",".","image-keyboard-response","392","446182","0.0-3.0-1.194","true"
"1491","ImagesTennis/TL107.5.png","188","test",",","image-keyboard-response","394","448176","0.0-3.0-1.195","true"
"1191","ImagesTennis/TR107.5.png","190","test",".","image-keyboard-response","396","449869","0.0-3.0-1.196","true"
"2161","ImagesDirect/VL95.png","188","test",".","image-keyboard-response","398","452533","0.0-3.0-1.197","false"
"1901","ImagesDirect/VL90.png","188","test",".","image-keyboard-response","400","454937","0.0-3.0-1.198","false"
"749","ImagesDirect/VL97.5.png","188","test",".","image-keyboard-response","402","456189","0.0-3.0-1.199","false"
"750","ImagesTennis/TR90.png","188","test",",","image-keyboard-response","404","457442","0.0-3.0-1.200","true"
"685","ImagesDirect/VL110.png","188","test",",","image-keyboard-response","406","458630","0.0-3.0-1.201","true"
"1014","ImagesTennis/TL95.png","190","test",".","image-keyboard-response","408","460147","0.0-3.0-1.202","true"
"1653","ImagesSoccer/VR97.5.png","190","test",",","image-keyboard-response","410","462303","0.0-3.0-1.203","false"
"987","ImagesSoccer/VL102.5.png","188","test",",","image-keyboard-response","412","463793","0.0-3.0-1.204","true"
"3436","ImagesTennis/TR97.5.png","190","test",",","image-keyboard-response","414","467732","0.0-3.0-1.205","false"
"1898","ImagesDirect/VR97.5.png","190","test",",","image-keyboard-response","416","470133","0.0-3.0-1.206","false"
"676","ImagesDirect/VL105.png","188","test",",","image-keyboard-response","418","471312","0.0-3.0-1.207","true"
"1018","ImagesTennis/TR110.png","190","test",".","image-keyboard-response","420","472833","0.0-3.0-1.208","true"
"1716","ImagesSoccer/VR100.png","188","test",".","image-keyboard-response","422","475052","0.0-3.0-1.209","false"
"886","ImagesDirect/VR90.png","188","test",",","image-keyboard-response","424","476441","0.0-3.0-1.210","true"
"963","ImagesTennis/TR92.5.png","188","test",",","image-keyboard-response","426","477907","0.0-3.0-1.211","true"
"1183","ImagesSoccer/VR92.5.png","190","test",",","image-keyboard-response","428","479593","0.0-3.0-1.212","false"
"771","ImagesTennis/TR105.png","188","test",".","image-keyboard-response","430","480867","0.0-3.0-1.213","false"
"1245","ImagesSoccer/VR95.png","190","test",",","image-keyboard-response","432","482615","0.0-3.0-1.214","false"
"779","ImagesSoccer/VL107.5.png","188","test",",","image-keyboard-response","434","483897","0.0-3.0-1.215","true"
"1030","ImagesSoccer/VL110.png","188","test",",","image-keyboard-response","436","485429","0.0-3.0-1.216","true"
"1008","ImagesSoccer/VR90.png","188","test",",","image-keyboard-response","438","486939","0.0-3.0-1.217","true"
"1084","ImagesDirect/VL100.png","188","test",".","image-keyboard-response","440","488525","0.0-3.0-1.218","false"
"1496","ImagesTennis/TL105.png","188","test",",","image-keyboard-response","442","490523","0.0-3.0-1.219","true"
"967","ImagesDirect/VR90.png","190","test",",","image-keyboard-response","444","491993","0.0-3.0-1.220","false"
"670","ImagesTennis/TR95.png","188","test",",","image-keyboard-response","446","493166","0.0-3.0-1.221","true"
"658","ImagesDirect/VL107.5.png","190","test",",","image-keyboard-response","448","494327","0.0-3.0-1.222","false"
"642","ImagesSoccer/VR102.5.png","190","test",".","image-keyboard-response","450","495471","0.0-3.0-1.223","true"
"993","ImagesSoccer/VL107.5.png","188","test",",","image-keyboard-response","452","496967","0.0-3.0-1.224","true"
"746","ImagesTennis/TR92.5.png","188","test",",","image-keyboard-response","454","498217","0.0-3.0-1.225","true"
"1098","ImagesSoccer/VR100.png","190","test",".","image-keyboard-response","456","499817","0.0-3.0-1.226","true"
"1232","ImagesTennis/TL110.png","188","test",",","image-keyboard-response","458","501552","0.0-3.0-1.227","true"
"5947","ImagesDirect/VR92.5.png","190","test",",","image-keyboard-response","460","508003","0.0-3.0-1.228","false"
"952","ImagesTennis/TR90.png","188","test",",","image-keyboard-response","462","509457","0.0-3.0-1.229","true"
"1450","ImagesSoccer/VL97.5.png","188","test",".","image-keyboard-response","464","511410","0.0-3.0-1.230","false"
"2352","ImagesDirect/VR110.png","190","test",".","image-keyboard-response","466","514265","0.0-3.0-1.231","true"
"868","ImagesSoccer/VR107.5.png","190","test",".","image-keyboard-response","468","515636","0.0-3.0-1.232","true"
"1466","ImagesTennis/TL107.5.png","188","test",",","image-keyboard-response","470","517605","0.0-3.0-1.233","true"
"1858","ImagesTennis/TL100.png","190","test",".","image-keyboard-response","472","519966","0.0-3.0-1.234","true"
"719","ImagesDirect/VL90.png","190","test",".","image-keyboard-response","474","521188","0.0-3.0-1.235","true"
"1072","ImagesDirect/VR105.png","190","test",".","image-keyboard-response","476","522763","0.0-3.0-1.236","true"
"783","ImagesTennis/TL97.5.png","190","test",".","image-keyboard-response","478","524048","0.0-3.0-1.237","true"
"829","ImagesDirect/VL95.png","190","test",".","image-keyboard-response","480","525379","0.0-3.0-1.238","true"
"1266","ImagesSoccer/VR97.5.png","190","test",",","image-keyboard-response","482","527147","0.0-3.0-1.239","false"
"1141","ImagesDirect/VL110.png","188","test",",","image-keyboard-response","484","528790","0.0-3.0-1.240","true"
"747","ImagesTennis/TL92.5.png","190","test",".","image-keyboard-response","486","530040","0.0-3.0-1.241","true"
"883","ImagesDirect/VL92.5.png","190","test",".","image-keyboard-response","488","531426","0.0-3.0-1.242","true"
"716","ImagesSoccer/VR95.png","190","test",",","image-keyboard-response","490","532644","0.0-3.0-1.243","false"
"623","ImagesDirect/VR102.5.png","190","test",".","image-keyboard-response","492","533770","0.0-3.0-1.244","true"
"1217","ImagesDirect/VL97.5.png","188","test",".","image-keyboard-response","494","535491","0.0-3.0-1.245","false"
"742","ImagesDirect/VR107.5.png","190","test",".","image-keyboard-response","496","536735","0.0-3.0-1.246","true"
"947","ImagesSoccer/VL95.png","190","test",".","image-keyboard-response","498","538185","0.0-3.0-1.247","true"
"949","ImagesSoccer/VL100.png","188","test",".","image-keyboard-response","500","539637","0.0-3.0-1.248","false"
"837","ImagesSoccer/VL90.png","190","test",".","image-keyboard-response","502","540977","0.0-3.0-1.249","true"
"952","ImagesSoccer/VL92.5.png","190","test",".","image-keyboard-response","504","542432","0.0-3.0-1.250","true"
"1474","ImagesTennis/TL102.5.png","188","test",",","image-keyboard-response","506","544409","0.0-3.0-1.251","true"
"1921","ImagesDirect/VR97.5.png","188","test",",","image-keyboard-response","508","546833","0.0-3.0-1.252","true"
"1270","ImagesTennis/TL95.png","190","test",".","image-keyboard-response","510","548606","0.0-3.0-1.253","true"
"1097","ImagesTennis/TR97.5.png","190","test",",","image-keyboard-response","512","550206","0.0-3.0-1.254","false"
"753","ImagesTennis/TR110.png","190","test",".","image-keyboard-response","514","551462","0.0-3.0-1.255","true"
"822","ImagesTennis/TR107.5.png","190","test",".","image-keyboard-response","516","552787","0.0-3.0-1.256","true"
"696","ImagesTennis/TR100.png","190","test",".","image-keyboard-response","518","553985","0.0-3.0-1.257","true"
"1050","ImagesDirect/VL105.png","188","test",",","image-keyboard-response","520","555537","0.0-3.0-1.258","true"
"786","ImagesSoccer/VR105.png","190","test",".","image-keyboard-response","522","556825","0.0-3.0-1.259","true"
"616","ImagesSoccer/VR110.png","190","test",".","image-keyboard-response","524","557943","0.0-3.0-1.260","true"
"850","ImagesTennis/TL90.png","188","test",".","image-keyboard-response","526","559295","0.0-3.0-1.261","false"
"876","ImagesSoccer/VL102.5.png","188","test",",","image-keyboard-response","528","560674","0.0-3.0-1.262","true"
"716","ImagesDirect/VR95.png","190","test",",","image-keyboard-response","530","561893","0.0-3.0-1.263","false"
"1110","ImagesTennis/TR105.png","190","test",".","image-keyboard-response","532","563505","0.0-3.0-1.264","true"
"818","ImagesDirect/VL102.5.png","188","test",",","image-keyboard-response","534","564826","0.0-3.0-1.265","true"
"945","ImagesSoccer/VL105.png","188","test",",","image-keyboard-response","536","566273","0.0-3.0-1.266","true"
"695","ImagesTennis/TR102.5.png","190","test",".","image-keyboard-response","538","567471","0.0-3.0-1.267","true"
"2869","ImagesDirect/VR100.png","190","test",".","image-keyboard-response","540","570843","0.0-3.0-1.268","true"
"1044","ImagesSoccer/VR92.5.png","190","test",",","image-keyboard-response","542","572390","0.0-3.0-1.269","false"
"3491","ImagesCoins/10R90.png","188","test",",","image-keyboard-response","544","576384","0.0-4.0-1.0","true"
"1349","ImagesCoins/10L92.5.png","190","test",".","image-keyboard-response","546","578236","0.0-4.0-1.1","true"
"2034","ImagesCoins/10R100.png","188","test",".","image-keyboard-response","548","580774","0.0-4.0-1.2","false"
"4819","ImagesCoins/10R92.5.png","188","test",",","image-keyboard-response","550","586095","0.0-4.0-1.3","true"
"1056","ImagesCoins/10R107.5.png","190","test",".","image-keyboard-response","552","587654","0.0-4.0-1.4","true"
"1833","ImagesCoins/10L105.png","188","test",",","image-keyboard-response","554","589990","0.0-4.0-1.5","true"
"2486","ImagesCoins/10L97.5.png","188","test",".","image-keyboard-response","556","592979","0.0-4.0-1.6","false"
"2489","ImagesCoins/10R102.5.png","190","test",".","image-keyboard-response","558","595971","0.0-4.0-1.7","true"
"1403","ImagesCoins/10R95.png","188","test",",","image-keyboard-response","560","597877","0.0-4.0-1.8","true"
"1620","ImagesCoins/10L100.png","190","test",".","image-keyboard-response","562","600000","0.0-4.0-1.9","true"
"1994","ImagesCoins/10R97.5.png","190","test",",","image-keyboard-response","564","602497","0.0-4.0-1.10","false"
"1169","ImagesCoins/10R110.png","190","test",".","image-keyboard-response","566","604170","0.0-4.0-1.11","true"
"1529","ImagesCoins/10L90.png","190","test",".","image-keyboard-response","568","606202","0.0-4.0-1.12","true"
"1472","ImagesCoins/10L107.5.png","188","test",",","image-keyboard-response","570","608177","0.0-4.0-1.13","true"
"2154","ImagesCoins/10L95.png","190","test",".","image-keyboard-response","572","610834","0.0-4.0-1.14","true"
"1870","ImagesCoins/10L102.5.png","188","test",",","image-keyboard-response","574","613205","0.0-4.0-1.15","true"
"2059","ImagesCoins/10R105.png","190","test",".","image-keyboard-response","576","615766","0.0-4.0-1.16","true"
"909","ImagesCoins/10L110.png","188","test",",","image-keyboard-response","578","617178","0.0-4.0-1.17","true"
"755","ImagesCoins/10R110.png","190","test",".","image-keyboard-response","580","618436","0.0-4.0-1.18","true"
"1599","ImagesCoins/10R95.png","188","test",",","image-keyboard-response","582","620538","0.0-4.0-1.19","true"
"1179","ImagesCoins/10L102.5.png","190","test",",","image-keyboard-response","584","622221","0.0-4.0-1.20","false"
"1164","ImagesCoins/10L107.5.png","188","test",",","image-keyboard-response","586","623887","0.0-4.0-1.21","true"
"942","ImagesCoins/10R105.png","190","test",".","image-keyboard-response","588","625332","0.0-4.0-1.22","true"
"1071","ImagesCoins/10R102.5.png","190","test",".","image-keyboard-response","590","626906","0.0-4.0-1.23","true"
"1018","ImagesCoins/10L100.png","188","test",".","image-keyboard-response","592","628427","0.0-4.0-1.24","false"
"1123","ImagesCoins/10R90.png","188","test",",","image-keyboard-response","594","630053","0.0-4.0-1.25","true"
"1052","ImagesCoins/10R107.5.png","190","test",".","image-keyboard-response","596","631608","0.0-4.0-1.26","true"
"2305","ImagesCoins/10R97.5.png","190","test",",","image-keyboard-response","598","634415","0.0-4.0-1.27","false"
"1273","ImagesCoins/10L95.png","190","test",".","image-keyboard-response","600","636191","0.0-4.0-1.28","true"
"1320","ImagesCoins/10L97.5.png","190","test",".","image-keyboard-response","602","638014","0.0-4.0-1.29","true"
"779","ImagesCoins/10L92.5.png","190","test",".","image-keyboard-response","604","639296","0.0-4.0-1.30","true"
"769","ImagesCoins/10L110.png","188","test",",","image-keyboard-response","606","640568","0.0-4.0-1.31","true"
"874","ImagesCoins/10L105.png","188","test",",","image-keyboard-response","608","641944","0.0-4.0-1.32","true"
"1198","ImagesCoins/10R92.5.png","188","test",",","image-keyboard-response","610","643645","0.0-4.0-1.33","true"
"1117","ImagesCoins/10R100.png","190","test",".","image-keyboard-response","612","645265","0.0-4.0-1.34","true"
"1401","ImagesCoins/10L90.png","190","test",".","image-keyboard-response","614","647169","0.0-4.0-1.35","true"
"930","ImagesCoins/10R92.5.png","188","test",",","image-keyboard-response","616","648602","0.0-4.0-1.36","true"
"880","ImagesCoins/10L97.5.png","190","test",".","image-keyboard-response","618","649985","0.0-4.0-1.37","true"
"2027","ImagesCoins/10R95.png","190","test",",","image-keyboard-response","620","652515","0.0-4.0-1.38","false"
"719","ImagesCoins/10L102.5.png","188","test",",","image-keyboard-response","622","653737","0.0-4.0-1.39","true"
"1372","ImagesCoins/10R90.png","188","test",",","image-keyboard-response","624","655612","0.0-4.0-1.40","true"
"1588","ImagesCoins/10R97.5.png","188","test",",","image-keyboard-response","626","657703","0.0-4.0-1.41","true"
"1008","ImagesCoins/10L105.png","188","test",",","image-keyboard-response","628","659214","0.0-4.0-1.42","true"
"3302","ImagesCoins/10L95.png","190","test",".","image-keyboard-response","630","663018","0.0-4.0-1.43","true"
"904","ImagesCoins/10R100.png","188","test",".","image-keyboard-response","632","664425","0.0-4.0-1.44","false"
"964","ImagesCoins/10R102.5.png","190","test",".","image-keyboard-response","634","665891","0.0-4.0-1.45","true"
"857","ImagesCoins/10R107.5.png","190","test",".","image-keyboard-response","636","667250","0.0-4.0-1.46","true"
"824","ImagesCoins/10L92.5.png","190","test",".","image-keyboard-response","638","668576","0.0-4.0-1.47","true"
"894","ImagesCoins/10R105.png","190","test",".","image-keyboard-response","640","669972","0.0-4.0-1.48","true"
"782","ImagesCoins/10L110.png","188","test",",","image-keyboard-response","642","671257","0.0-4.0-1.49","true"
"632","ImagesCoins/10L90.png","190","test",".","image-keyboard-response","644","672392","0.0-4.0-1.50","true"
"662","ImagesCoins/10R110.png","190","test",".","image-keyboard-response","646","673557","0.0-4.0-1.51","true"
"1250","ImagesCoins/10L107.5.png","188","test",",","image-keyboard-response","648","675309","0.0-4.0-1.52","true"
"962","ImagesCoins/10L100.png","190","test",".","image-keyboard-response","650","676774","0.0-4.0-1.53","true"
"1276","ImagesCoins/10L107.5.png","188","test",",","image-keyboard-response","652","678553","0.0-4.0-1.54","true"
"1097","ImagesCoins/10L90.png","190","test",".","image-keyboard-response","654","680153","0.0-4.0-1.55","true"
"1650","ImagesCoins/10R95.png","190","test",",","image-keyboard-response","656","682306","0.0-4.0-1.56","false"
"1045","ImagesCoins/10R107.5.png","188","test",".","image-keyboard-response","658","683854","0.0-4.0-1.57","false"
"680","ImagesCoins/10R90.png","188","test",",","image-keyboard-response","660","685037","0.0-4.0-1.58","true"
"753","ImagesCoins/10R105.png","190","test",".","image-keyboard-response","662","686293","0.0-4.0-1.59","true"
"1068","ImagesCoins/10R102.5.png","190","test",".","image-keyboard-response","664","687864","0.0-4.0-1.60","true"
"711","ImagesCoins/10L95.png","188","test",".","image-keyboard-response","666","689077","0.0-4.0-1.61","false"
"1812","ImagesCoins/10L100.png","188","test",".","image-keyboard-response","668","691392","0.0-4.0-1.62","false"
"1074","ImagesCoins/10L110.png","188","test",",","image-keyboard-response","670","692969","0.0-4.0-1.63","true"
"832","ImagesCoins/10L92.5.png","190","test",".","image-keyboard-response","672","694303","0.0-4.0-1.64","true"
"787","ImagesCoins/10R110.png","190","test",".","image-keyboard-response","674","695592","0.0-4.0-1.65","true"
"1180","ImagesCoins/10R92.5.png","188","test",",","image-keyboard-response","676","697275","0.0-4.0-1.66","true"
"1120","ImagesCoins/10L102.5.png","188","test",",","image-keyboard-response","678","698897","0.0-4.0-1.67","true"
"888","ImagesCoins/10R97.5.png","188","test",",","image-keyboard-response","680","700288","0.0-4.0-1.68","true"
"706","ImagesCoins/10L105.png","188","test",",","image-keyboard-response","682","701496","0.0-4.0-1.69","true"
"980","ImagesCoins/10R100.png","190","test",".","image-keyboard-response","684","702979","0.0-4.0-1.70","true"
"1389","ImagesCoins/10L97.5.png","188","test",".","image-keyboard-response","686","704870","0.0-4.0-1.71","false"
"1571","ImagesCoins/10R90.png","188","test",",","image-keyboard-response","688","706945","0.0-4.0-1.72","true"
"1133","ImagesCoins/10L105.png","190","test",",","image-keyboard-response","690","708580","0.0-4.0-1.73","false"
"816","ImagesCoins/10L92.5.png","188","test",".","image-keyboard-response","692","709899","0.0-4.0-1.74","false"
"410","ImagesCoins/10R97.5.png","188","test",",","image-keyboard-response","694","710812","0.0-4.0-1.75","true"
"1415","ImagesCoins/10L102.5.png","188","test",",","image-keyboard-response","696","712730","0.0-4.0-1.76","true"
"688","ImagesCoins/10R107.5.png","190","test",".","image-keyboard-response","698","713924","0.0-4.0-1.77","true"
"769","ImagesCoins/10R92.5.png","188","test",",","image-keyboard-response","700","715196","0.0-4.0-1.78","true"
"684","ImagesCoins/10R95.png","190","test",",","image-keyboard-response","702","713240","0.0-4.0-1.79","false"
"1109","ImagesCoins/10L95.png","190","test",".","image-keyboard-response","704","714851","0.0-4.0-1.80","true"
"584","ImagesCoins/10L110.png","188","test",",","image-keyboard-response","706","715938","0.0-4.0-1.81","true"
"368","ImagesCoins/10R110.png","190","test",".","image-keyboard-response","708","716809","0.0-4.0-1.82","true"
"798","ImagesCoins/10R100.png","190","test",".","image-keyboard-response","710","718111","0.0-4.0-1.83","true"
"754","ImagesCoins/10R102.5.png","190","test",".","image-keyboard-response","712","719369","0.0-4.0-1.84","true"
"821","ImagesCoins/10L100.png","190","test",".","image-keyboard-response","714","720693","0.0-4.0-1.85","true"
"755","ImagesCoins/10R105.png","190","test",".","image-keyboard-response","716","721951","0.0-4.0-1.86","true"
"674","ImagesCoins/10L90.png","190","test",".","image-keyboard-response","718","723128","0.0-4.0-1.87","true"
"859","ImagesCoins/10L107.5.png","188","test",",","image-keyboard-response","720","724490","0.0-4.0-1.88","true"
"735","ImagesCoins/10L97.5.png","188","test",".","image-keyboard-response","722","725728","0.0-4.0-1.89","false"
