"rt","stimulus","key_press","test_part","correct_response","trial_type","trial_index","time_elapsed","internal_node_id","correct"
"2316","ImagesCoins/10L105.png","190","test",",","image-keyboard-response","4","23818","0.0-3.0-1.0","false"
"1053","ImagesCoins/10R110.png","190","test",".","image-keyboard-response","6","25375","0.0-3.0-1.1","true"
"899","ImagesCoins/10R102.5.png","190","test",".","image-keyboard-response","8","26777","0.0-3.0-1.2","true"
"2637","ImagesCoins/10L100.png","188","test",".","image-keyboard-response","10","29919","0.0-3.0-1.3","false"
"936","ImagesCoins/10R90.png","188","test",",","image-keyboard-response","12","31357","0.0-3.0-1.4","true"
"1640","ImagesCoins/10L107.5.png","188","test",",","image-keyboard-response","14","33502","0.0-3.0-1.5","true"
"721","ImagesCoins/10L110.png","188","test",",","image-keyboard-response","16","34725","0.0-3.0-1.6","true"
"1140","ImagesCoins/10R95.png","190","test",",","image-keyboard-response","18","36367","0.0-3.0-1.7","false"
"679","ImagesCoins/10L92.5.png","190","test",".","image-keyboard-response","20","37549","0.0-3.0-1.8","true"
"632","ImagesCoins/10R107.5.png","190","test",".","image-keyboard-response","22","38684","0.0-3.0-1.9","true"
"657","ImagesCoins/10L90.png","190","test",".","image-keyboard-response","24","39843","0.0-3.0-1.10","true"
"1929","ImagesCoins/10L97.5.png","190","test",".","image-keyboard-response","26","42274","0.0-3.0-1.11","true"
"895","ImagesCoins/10R92.5.png","188","test",",","image-keyboard-response","28","43672","0.0-3.0-1.12","true"
"1502","ImagesCoins/10R97.5.png","190","test",",","image-keyboard-response","30","45677","0.0-3.0-1.13","false"
"578","ImagesCoins/10R100.png","190","test",".","image-keyboard-response","32","46757","0.0-3.0-1.14","true"
"613","ImagesCoins/10L102.5.png","188","test",",","image-keyboard-response","34","47874","0.0-3.0-1.15","true"
"770","ImagesCoins/10L95.png","190","test",".","image-keyboard-response","36","49147","0.0-3.0-1.16","true"
"617","ImagesCoins/10R105.png","190","test",".","image-keyboard-response","38","50268","0.0-3.0-1.17","true"
"901","ImagesCoins/10L100.png","190","test",".","image-keyboard-response","40","51672","0.0-3.0-1.18","true"
"681","ImagesCoins/10R92.5.png","188","test",",","image-keyboard-response","42","52857","0.0-3.0-1.19","true"
"481","ImagesCoins/10R100.png","190","test",".","image-keyboard-response","44","53841","0.0-3.0-1.20","true"
"496","ImagesCoins/10R102.5.png","190","test",".","image-keyboard-response","46","54841","0.0-3.0-1.21","true"
"488","ImagesCoins/10L90.png","190","test",".","image-keyboard-response","48","55831","0.0-3.0-1.22","true"
"488","ImagesCoins/10L95.png","190","test",".","image-keyboard-response","50","56823","0.0-3.0-1.23","true"
"596","ImagesCoins/10L102.5.png","188","test",",","image-keyboard-response","52","57922","0.0-3.0-1.24","true"
"399","ImagesCoins/10R110.png","190","test",".","image-keyboard-response","54","58823","0.0-3.0-1.25","true"
"422","ImagesCoins/10L107.5.png","188","test",",","image-keyboard-response","56","59748","0.0-3.0-1.26","true"
"569","ImagesCoins/10L97.5.png","190","test",".","image-keyboard-response","58","60820","0.0-3.0-1.27","true"
"432","ImagesCoins/10R107.5.png","190","test",".","image-keyboard-response","60","61756","0.0-3.0-1.28","true"
"421","ImagesCoins/10L110.png","188","test",",","image-keyboard-response","62","62680","0.0-3.0-1.29","true"
"370","ImagesCoins/10R97.5.png","190","test",",","image-keyboard-response","64","63552","0.0-3.0-1.30","false"
"475","ImagesCoins/10R95.png","190","test",",","image-keyboard-response","66","64530","0.0-3.0-1.31","false"
"909","ImagesCoins/10R90.png","188","test",",","image-keyboard-response","68","65941","0.0-3.0-1.32","true"
"525","ImagesCoins/10L92.5.png","190","test",".","image-keyboard-response","70","66974","0.0-3.0-1.33","true"
"692","ImagesCoins/10R105.png","190","test",".","image-keyboard-response","72","68168","0.0-3.0-1.34","true"
"516","ImagesCoins/10L105.png","188","test",",","image-keyboard-response","74","69187","0.0-3.0-1.35","true"
"473","ImagesCoins/10L107.5.png","188","test",",","image-keyboard-response","76","70162","0.0-3.0-1.36","true"
"395","ImagesCoins/10R107.5.png","190","test",".","image-keyboard-response","78","71060","0.0-3.0-1.37","true"
"760","ImagesCoins/10R92.5.png","188","test",",","image-keyboard-response","80","72321","0.0-3.0-1.38","true"
"643","ImagesCoins/10L95.png","190","test",".","image-keyboard-response","82","73466","0.0-3.0-1.39","true"
"1188","ImagesCoins/10R102.5.png","190","test",".","image-keyboard-response","84","75156","0.0-3.0-1.40","true"
"564","ImagesCoins/10L90.png","190","test",".","image-keyboard-response","86","76223","0.0-3.0-1.41","true"
"580","ImagesCoins/10R97.5.png","188","test",",","image-keyboard-response","88","77305","0.0-3.0-1.42","true"
"923","ImagesCoins/10R95.png","188","test",",","image-keyboard-response","90","78731","0.0-3.0-1.43","true"
"529","ImagesCoins/10L105.png","188","test",",","image-keyboard-response","92","79763","0.0-3.0-1.44","true"
"1896","ImagesCoins/10L102.5.png","188","test",",","image-keyboard-response","94","82162","0.0-3.0-1.45","true"
"595","ImagesCoins/10L97.5.png","190","test",".","image-keyboard-response","96","83259","0.0-3.0-1.46","true"
"434","ImagesCoins/10R105.png","190","test",".","image-keyboard-response","98","84194","0.0-3.0-1.47","true"
"473","ImagesCoins/10L100.png","188","test",".","image-keyboard-response","100","85170","0.0-3.0-1.48","false"
"494","ImagesCoins/10R110.png","190","test",".","image-keyboard-response","102","86166","0.0-3.0-1.49","true"
"602","ImagesCoins/10L110.png","188","test",",","image-keyboard-response","104","87270","0.0-3.0-1.50","true"
"457","ImagesCoins/10R100.png","190","test",".","image-keyboard-response","106","88230","0.0-3.0-1.51","true"
"689","ImagesCoins/10L92.5.png","190","test",".","image-keyboard-response","108","89421","0.0-3.0-1.52","true"
"432","ImagesCoins/10R90.png","188","test",",","image-keyboard-response","110","90357","0.0-3.0-1.53","true"
"406","ImagesCoins/10R107.5.png","190","test",".","image-keyboard-response","112","91265","0.0-3.0-1.54","true"
"363","ImagesCoins/10L102.5.png","188","test",",","image-keyboard-response","114","92129","0.0-3.0-1.55","true"
"524","ImagesCoins/10L100.png","190","test",".","image-keyboard-response","116","93157","0.0-3.0-1.56","true"
"442","ImagesCoins/10R102.5.png","190","test",".","image-keyboard-response","118","94103","0.0-3.0-1.57","true"
"486","ImagesCoins/10R92.5.png","190","test",",","image-keyboard-response","120","95092","0.0-3.0-1.58","false"
"620","ImagesCoins/10L107.5.png","188","test",",","image-keyboard-response","122","96216","0.0-3.0-1.59","true"
"673","ImagesCoins/10R90.png","188","test",",","image-keyboard-response","124","97390","0.0-3.0-1.60","true"
"445","ImagesCoins/10L92.5.png","190","test",".","image-keyboard-response","126","98336","0.0-3.0-1.61","true"
"429","ImagesCoins/10L95.png","190","test",".","image-keyboard-response","128","99266","0.0-3.0-1.62","true"
"425","ImagesCoins/10L97.5.png","190","test",".","image-keyboard-response","130","100195","0.0-3.0-1.63","true"
"390","ImagesCoins/10R105.png","190","test",".","image-keyboard-response","132","101088","0.0-3.0-1.64","true"
"407","ImagesCoins/10L105.png","188","test",",","image-keyboard-response","134","101997","0.0-3.0-1.65","true"
"576","ImagesCoins/10R100.png","190","test",".","image-keyboard-response","136","103076","0.0-3.0-1.66","true"
"402","ImagesCoins/10R110.png","190","test",".","image-keyboard-response","138","103981","0.0-3.0-1.67","true"
"522","ImagesCoins/10L110.png","188","test",",","image-keyboard-response","140","105007","0.0-3.0-1.68","true"
"374","ImagesCoins/10L90.png","190","test",".","image-keyboard-response","142","105884","0.0-3.0-1.69","true"
"470","ImagesCoins/10R95.png","188","test",",","image-keyboard-response","144","106857","0.0-3.0-1.70","true"
"943","ImagesCoins/10R97.5.png","188","test",",","image-keyboard-response","146","108304","0.0-3.0-1.71","true"
"434","ImagesCoins/10R90.png","190","test",",","image-keyboard-response","148","109243","0.0-3.0-1.72","false"
"560","ImagesCoins/10R110.png","190","test",".","image-keyboard-response","150","110307","0.0-3.0-1.73","true"
"804","ImagesCoins/10L97.5.png","190","test",".","image-keyboard-response","152","111613","0.0-3.0-1.74","true"
"476","ImagesCoins/10R92.5.png","188","test",",","image-keyboard-response","154","112592","0.0-3.0-1.75","true"
"849","ImagesCoins/10L110.png","188","test",",","image-keyboard-response","156","113945","0.0-3.0-1.76","true"
"414","ImagesCoins/10R102.5.png","188","test",".","image-keyboard-response","158","114863","0.0-3.0-1.77","false"
"543","ImagesCoins/10R105.png","190","test",".","image-keyboard-response","160","115909","0.0-3.0-1.78","true"
"608","ImagesCoins/10L102.5.png","190","test",",","image-keyboard-response","162","117021","0.0-3.0-1.79","false"
"484","ImagesCoins/10R100.png","190","test",".","image-keyboard-response","164","118008","0.0-3.0-1.80","true"
"443","ImagesCoins/10L105.png","188","test",",","image-keyboard-response","166","118954","0.0-3.0-1.81","true"
"610","ImagesCoins/10L107.5.png","188","test",",","image-keyboard-response","168","120066","0.0-3.0-1.82","true"
"515","ImagesCoins/10L92.5.png","190","test",".","image-keyboard-response","170","121082","0.0-3.0-1.83","true"
"643","ImagesCoins/10R95.png","188","test",",","image-keyboard-response","172","122227","0.0-3.0-1.84","true"
"522","ImagesCoins/10R97.5.png","190","test",",","image-keyboard-response","174","123252","0.0-3.0-1.85","false"
"492","ImagesCoins/10L95.png","190","test",".","image-keyboard-response","176","124248","0.0-3.0-1.86","true"
"664","ImagesCoins/10L100.png","190","test",".","image-keyboard-response","178","125415","0.0-3.0-1.87","true"
"389","ImagesCoins/10R107.5.png","190","test",".","image-keyboard-response","180","126307","0.0-3.0-1.88","true"
"470","ImagesCoins/10L90.png","190","test",".","image-keyboard-response","182","127280","0.0-3.0-1.89","true"
"4222","ImagesSoccer/VR92.5.png","188","test",",","image-keyboard-response","184","132005","0.0-4.0-1.0","true"
"2105","ImagesSoccer/VL95.png","190","test",".","image-keyboard-response","186","134612","0.0-4.0-1.1","true"
"1807","ImagesDirect/VL95.png","188","test",".","image-keyboard-response","188","136924","0.0-4.0-1.2","false"
"1603","ImagesDirect/VR102.5.png","190","test",".","image-keyboard-response","190","139030","0.0-4.0-1.3","true"
"678","ImagesTennis/TL90.png","190","test",".","image-keyboard-response","192","140211","0.0-4.0-1.4","true"
"1021","ImagesDirect/VR100.png","190","test",".","image-keyboard-response","194","141733","0.0-4.0-1.5","true"
"653","ImagesTennis/TR90.png","188","test",",","image-keyboard-response","196","142890","0.0-4.0-1.6","true"
"987","ImagesSoccer/VL105.png","188","test",",","image-keyboard-response","198","144380","0.0-4.0-1.7","true"
"952","ImagesDirect/VL90.png","190","test",".","image-keyboard-response","200","145835","0.0-4.0-1.8","true"
"702","ImagesDirect/VL105.png","188","test",",","image-keyboard-response","202","147041","0.0-4.0-1.9","true"
"628","ImagesTennis/TR110.png","190","test",".","image-keyboard-response","204","148172","0.0-4.0-1.10","true"
"1326","ImagesTennis/TR95.png","188","test",",","image-keyboard-response","206","150002","0.0-4.0-1.11","true"
"899","ImagesSoccer/VL90.png","190","test",".","image-keyboard-response","208","151404","0.0-4.0-1.12","true"
"794","ImagesTennis/TL102.5.png","188","test",",","image-keyboard-response","210","152700","0.0-4.0-1.13","true"
"624","ImagesSoccer/VR110.png","190","test",".","image-keyboard-response","212","153826","0.0-4.0-1.14","true"
"517","ImagesSoccer/VR107.5.png","190","test",".","image-keyboard-response","214","154845","0.0-4.0-1.15","true"
"741","ImagesTennis/TL97.5.png","188","test",".","image-keyboard-response","216","156089","0.0-4.0-1.16","false"
"578","ImagesDirect/VL110.png","188","test",",","image-keyboard-response","218","157170","0.0-4.0-1.17","true"
"832","ImagesDirect/VL102.5.png","188","test",",","image-keyboard-response","220","158506","0.0-4.0-1.18","true"
"792","ImagesDirect/VL92.5.png","190","test",".","image-keyboard-response","222","159800","0.0-4.0-1.19","true"
"703","ImagesTennis/TR102.5.png","190","test",".","image-keyboard-response","224","161005","0.0-4.0-1.20","true"
"1009","ImagesSoccer/VL97.5.png","188","test",".","image-keyboard-response","226","162518","0.0-4.0-1.21","false"
"826","ImagesSoccer/VL102.5.png","188","test",",","image-keyboard-response","228","163848","0.0-4.0-1.22","true"
"794","ImagesSoccer/VR95.png","190","test",",","image-keyboard-response","230","165143","0.0-4.0-1.23","false"
"935","ImagesTennis/TR92.5.png","190","test",",","image-keyboard-response","232","166580","0.0-4.0-1.24","false"
"1403","ImagesTennis/TL105.png","190","test",",","image-keyboard-response","234","168487","0.0-4.0-1.25","false"
"612","ImagesDirect/VR105.png","190","test",".","image-keyboard-response","236","169600","0.0-4.0-1.26","true"
"645","ImagesTennis/TL110.png","188","test",",","image-keyboard-response","238","170747","0.0-4.0-1.27","true"
"922","ImagesTennis/TL107.5.png","188","test",",","image-keyboard-response","240","172173","0.0-4.0-1.28","true"
"636","ImagesSoccer/VR100.png","190","test",".","image-keyboard-response","242","173312","0.0-4.0-1.29","true"
"707","ImagesSoccer/VL92.5.png","188","test",".","image-keyboard-response","244","174522","0.0-4.0-1.30","false"
"735","ImagesDirect/VL107.5.png","188","test",",","image-keyboard-response","246","175759","0.0-4.0-1.31","true"
"1109","ImagesTennis/TL100.png","190","test",".","image-keyboard-response","248","177371","0.0-4.0-1.32","true"
"612","ImagesSoccer/VR102.5.png","190","test",".","image-keyboard-response","250","178486","0.0-4.0-1.33","true"
"872","ImagesDirect/VR95.png","188","test",",","image-keyboard-response","252","179860","0.0-4.0-1.34","true"
"647","ImagesTennis/TR97.5.png","190","test",",","image-keyboard-response","254","181010","0.0-4.0-1.35","false"
"682","ImagesDirect/VR90.png","188","test",",","image-keyboard-response","256","182194","0.0-4.0-1.36","true"
"704","ImagesTennis/TL95.png","188","test",".","image-keyboard-response","258","183400","0.0-4.0-1.37","false"
"567","ImagesSoccer/VL110.png","188","test",",","image-keyboard-response","260","184470","0.0-4.0-1.38","true"
"753","ImagesSoccer/VR97.5.png","190","test",",","image-keyboard-response","262","185725","0.0-4.0-1.39","false"
"813","ImagesDirect/VR110.png","190","test",".","image-keyboard-response","264","187041","0.0-4.0-1.40","true"
"654","ImagesTennis/TR100.png","190","test",".","image-keyboard-response","266","188198","0.0-4.0-1.41","true"
"1517","ImagesDirect/VL97.5.png","188","test",".","image-keyboard-response","268","190216","0.0-4.0-1.42","false"
"782","ImagesSoccer/VR90.png","190","test",",","image-keyboard-response","270","191501","0.0-4.0-1.43","false"
"643","ImagesDirect/VL100.png","188","test",".","image-keyboard-response","272","192648","0.0-4.0-1.44","false"
"611","ImagesTennis/TL92.5.png","188","test",".","image-keyboard-response","274","193762","0.0-4.0-1.45","false"
"883","ImagesTennis/TR105.png","190","test",".","image-keyboard-response","276","195147","0.0-4.0-1.46","true"
"1215","ImagesSoccer/VR105.png","190","test",".","image-keyboard-response","278","196864","0.0-4.0-1.47","true"
"618","ImagesDirect/VR107.5.png","190","test",".","image-keyboard-response","280","197985","0.0-4.0-1.48","true"
"1009","ImagesTennis/TR107.5.png","190","test",".","image-keyboard-response","282","199496","0.0-4.0-1.49","true"
"716","ImagesDirect/VR92.5.png","188","test",",","image-keyboard-response","284","200714","0.0-4.0-1.50","true"
"498","ImagesSoccer/VL107.5.png","188","test",",","image-keyboard-response","286","201715","0.0-4.0-1.51","true"
"896","ImagesDirect/VR97.5.png","190","test",",","image-keyboard-response","288","203113","0.0-4.0-1.52","false"
"604","ImagesSoccer/VL100.png","188","test",".","image-keyboard-response","290","204220","0.0-4.0-1.53","false"
"744","ImagesDirect/VL102.5.png","188","test",",","image-keyboard-response","292","205468","0.0-4.0-1.54","true"
"715","ImagesDirect/VR102.5.png","190","test",".","image-keyboard-response","294","206685","0.0-4.0-1.55","true"
"530","ImagesDirect/VL105.png","188","test",",","image-keyboard-response","296","207719","0.0-4.0-1.56","true"
"376","ImagesDirect/VR105.png","190","test",".","image-keyboard-response","298","208597","0.0-4.0-1.57","true"
"434","ImagesTennis/TR102.5.png","190","test",".","image-keyboard-response","300","209533","0.0-4.0-1.58","true"
"394","ImagesSoccer/VL100.png","188","test",".","image-keyboard-response","302","210430","0.0-4.0-1.59","false"
"432","ImagesSoccer/VL107.5.png","188","test",",","image-keyboard-response","304","211364","0.0-4.0-1.60","true"
"448","ImagesTennis/TL95.png","188","test",".","image-keyboard-response","306","212314","0.0-4.0-1.61","false"
"407","ImagesSoccer/VR92.5.png","190","test",",","image-keyboard-response","308","213225","0.0-4.0-1.62","false"
"557","ImagesDirect/VL90.png","190","test",".","image-keyboard-response","310","214286","0.0-4.0-1.63","true"
"395","ImagesSoccer/VR102.5.png","190","test",".","image-keyboard-response","312","215184","0.0-4.0-1.64","true"
"557","ImagesDirect/VL92.5.png","188","test",".","image-keyboard-response","314","216244","0.0-4.0-1.65","false"
"534","ImagesDirect/VR97.5.png","190","test",",","image-keyboard-response","316","217281","0.0-4.0-1.66","false"
"454","ImagesTennis/TL110.png","188","test",",","image-keyboard-response","318","218238","0.0-4.0-1.67","true"
"428","ImagesSoccer/VR95.png","190","test",",","image-keyboard-response","320","219169","0.0-4.0-1.68","false"
"418","ImagesTennis/TR97.5.png","190","test",",","image-keyboard-response","322","220089","0.0-4.0-1.69","false"
"515","ImagesSoccer/VL102.5.png","190","test",",","image-keyboard-response","324","221106","0.0-4.0-1.70","false"
"667","ImagesDirect/VR110.png","190","test",".","image-keyboard-response","326","222276","0.0-4.0-1.71","true"
"753","ImagesSoccer/VR90.png","188","test",",","image-keyboard-response","328","223531","0.0-4.0-1.72","true"
"631","ImagesSoccer/VR105.png","190","test",".","image-keyboard-response","330","224665","0.0-4.0-1.73","true"
"635","ImagesSoccer/VR97.5.png","190","test",",","image-keyboard-response","332","225804","0.0-4.0-1.74","false"
"877","ImagesDirect/VR90.png","188","test",",","image-keyboard-response","334","227183","0.0-4.0-1.75","true"
"1311","ImagesTennis/TR110.png","190","test",".","image-keyboard-response","336","228998","0.0-4.0-1.76","true"
"652","ImagesSoccer/VL92.5.png","188","test",".","image-keyboard-response","338","230153","0.0-4.0-1.77","false"
"493","ImagesDirect/VR100.png","190","test",".","image-keyboard-response","340","231148","0.0-4.0-1.78","true"
"551","ImagesDirect/VR107.5.png","190","test",".","image-keyboard-response","342","232201","0.0-4.0-1.79","true"
"430","ImagesSoccer/VL110.png","188","test",",","image-keyboard-response","344","233134","0.0-4.0-1.80","true"
"360","ImagesSoccer/VR107.5.png","190","test",".","image-keyboard-response","346","233997","0.0-4.0-1.81","true"
"412","ImagesDirect/VL107.5.png","188","test",",","image-keyboard-response","348","234911","0.0-4.0-1.82","true"
"431","ImagesSoccer/VR110.png","190","test",".","image-keyboard-response","350","235844","0.0-4.0-1.83","true"
"450","ImagesTennis/TL100.png","188","test",".","image-keyboard-response","352","236798","0.0-4.0-1.84","false"
"942","ImagesDirect/VR95.png","188","test",",","image-keyboard-response","354","238242","0.0-4.0-1.85","true"
"521","ImagesTennis/TR107.5.png","190","test",".","image-keyboard-response","356","239266","0.0-4.0-1.86","true"
"527","ImagesDirect/VL110.png","188","test",",","image-keyboard-response","358","240296","0.0-4.0-1.87","true"
"426","ImagesSoccer/VL95.png","188","test",".","image-keyboard-response","360","241225","0.0-4.0-1.88","false"
"501","ImagesTennis/TL105.png","188","test",",","image-keyboard-response","362","242230","0.0-4.0-1.89","true"
"460","ImagesTennis/TR90.png","190","test",",","image-keyboard-response","364","243192","0.0-4.0-1.90","false"
"494","ImagesTennis/TR95.png","190","test",",","image-keyboard-response","366","244189","0.0-4.0-1.91","false"
"1074","ImagesDirect/VR92.5.png","190","test",",","image-keyboard-response","368","245767","0.0-4.0-1.92","false"
"511","ImagesTennis/TL97.5.png","188","test",".","image-keyboard-response","370","246780","0.0-4.0-1.93","false"
"424","ImagesTennis/TL90.png","188","test",".","image-keyboard-response","372","247707","0.0-4.0-1.94","false"
"423","ImagesTennis/TL107.5.png","188","test",",","image-keyboard-response","374","248634","0.0-4.0-1.95","true"
"460","ImagesTennis/TR100.png","190","test",".","image-keyboard-response","376","249598","0.0-4.0-1.96","true"
"714","ImagesTennis/TL92.5.png","188","test",".","image-keyboard-response","378","250815","0.0-4.0-1.97","false"
"430","ImagesTennis/TL102.5.png","188","test",",","image-keyboard-response","380","251747","0.0-4.0-1.98","true"
"470","ImagesSoccer/VL97.5.png","188","test",".","image-keyboard-response","382","252718","0.0-4.0-1.99","false"
"379","ImagesTennis/TR92.5.png","190","test",",","image-keyboard-response","384","253598","0.0-4.0-1.100","false"
"1059","ImagesSoccer/VL105.png","188","test",",","image-keyboard-response","386","255159","0.0-4.0-1.101","true"
"548","ImagesSoccer/VR100.png","190","test",".","image-keyboard-response","388","256212","0.0-4.0-1.102","true"
"1097","ImagesDirect/VL97.5.png","188","test",".","image-keyboard-response","390","257812","0.0-4.0-1.103","false"
"662","ImagesTennis/TR105.png","190","test",".","image-keyboard-response","392","258975","0.0-4.0-1.104","true"
"730","ImagesSoccer/VL90.png","188","test",".","image-keyboard-response","394","260208","0.0-4.0-1.105","false"
"1219","ImagesDirect/VL100.png","188","test",".","image-keyboard-response","396","261931","0.0-4.0-1.106","false"
"2231","ImagesDirect/VL95.png","188","test",".","image-keyboard-response","398","264665","0.0-4.0-1.107","false"
"885","ImagesSoccer/VR90.png","190","test",",","image-keyboard-response","400","266054","0.0-4.0-1.108","false"
"953","ImagesSoccer/VR110.png","190","test",".","image-keyboard-response","402","267510","0.0-4.0-1.109","true"
"906","ImagesSoccer/VL97.5.png","188","test",".","image-keyboard-response","404","268919","0.0-4.0-1.110","false"
"448","ImagesTennis/TL100.png","188","test",".","image-keyboard-response","406","269869","0.0-4.0-1.111","false"
"728","ImagesDirect/VR110.png","190","test",".","image-keyboard-response","408","271099","0.0-4.0-1.112","true"
"630","ImagesTennis/TR102.5.png","190","test",".","image-keyboard-response","410","272231","0.0-4.0-1.113","true"
"952","ImagesDirect/VL100.png","188","test",".","image-keyboard-response","412","273687","0.0-4.0-1.114","false"
"1029","ImagesTennis/TR107.5.png","190","test",".","image-keyboard-response","414","275218","0.0-4.0-1.115","true"
"709","ImagesSoccer/VL107.5.png","188","test",",","image-keyboard-response","416","276430","0.0-4.0-1.116","true"
"1263","ImagesDirect/VR97.5.png","190","test",",","image-keyboard-response","418","278196","0.0-4.0-1.117","false"
"521","ImagesSoccer/VR100.png","190","test",".","image-keyboard-response","420","279221","0.0-4.0-1.118","true"
"758","ImagesDirect/VL107.5.png","188","test",",","image-keyboard-response","422","280482","0.0-4.0-1.119","true"
"1012","ImagesSoccer/VR97.5.png","190","test",",","image-keyboard-response","424","281997","0.0-4.0-1.120","false"
"660","ImagesTennis/TR90.png","190","test",",","image-keyboard-response","426","283161","0.0-4.0-1.121","false"
"770","ImagesSoccer/VL102.5.png","188","test",",","image-keyboard-response","428","284434","0.0-4.0-1.122","true"
"791","ImagesSoccer/VL100.png","188","test",".","image-keyboard-response","430","285728","0.0-4.0-1.123","false"
"642","ImagesTennis/TL110.png","188","test",",","image-keyboard-response","432","286873","0.0-4.0-1.124","true"
"557","ImagesSoccer/VL95.png","188","test",".","image-keyboard-response","434","287933","0.0-4.0-1.125","false"
"1038","ImagesDirect/VR90.png","188","test",",","image-keyboard-response","436","289474","0.0-4.0-1.126","true"
"917","ImagesDirect/VL102.5.png","188","test",",","image-keyboard-response","438","290895","0.0-4.0-1.127","true"
"746","ImagesTennis/TR95.png","190","test",",","image-keyboard-response","440","292144","0.0-4.0-1.128","false"
"542","ImagesDirect/VL110.png","188","test",",","image-keyboard-response","442","293189","0.0-4.0-1.129","true"
"566","ImagesTennis/TL105.png","188","test",",","image-keyboard-response","444","294257","0.0-4.0-1.130","true"
"971","ImagesDirect/VR95.png","188","test",",","image-keyboard-response","446","295732","0.0-4.0-1.131","true"
"671","ImagesDirect/VR107.5.png","190","test",".","image-keyboard-response","448","296906","0.0-4.0-1.132","true"
"1063","ImagesTennis/TR100.png","188","test",".","image-keyboard-response","450","298473","0.0-4.0-1.133","false"
"664","ImagesSoccer/VR95.png","190","test",",","image-keyboard-response","452","299641","0.0-4.0-1.134","false"
"531","ImagesTennis/TL97.5.png","188","test",".","image-keyboard-response","454","300675","0.0-4.0-1.135","false"
"525","ImagesSoccer/VR102.5.png","190","test",".","image-keyboard-response","456","301705","0.0-4.0-1.136","true"
"485","ImagesTennis/TL102.5.png","188","test",",","image-keyboard-response","458","302692","0.0-4.0-1.137","true"
"511","ImagesTennis/TL95.png","188","test",".","image-keyboard-response","460","303707","0.0-4.0-1.138","false"
"549","ImagesDirect/VR100.png","190","test",".","image-keyboard-response","462","304760","0.0-4.0-1.139","true"
"422","ImagesSoccer/VL92.5.png","188","test",".","image-keyboard-response","464","305685","0.0-4.0-1.140","false"
"362","ImagesSoccer/VL90.png","188","test",".","image-keyboard-response","466","306550","0.0-4.0-1.141","false"
"635","ImagesTennis/TL90.png","190","test",".","image-keyboard-response","468","307687","0.0-4.0-1.142","true"
"1082","ImagesDirect/VL90.png","188","test",".","image-keyboard-response","470","309271","0.0-4.0-1.143","false"
"533","ImagesSoccer/VL110.png","188","test",",","image-keyboard-response","472","310308","0.0-4.0-1.144","true"
"558","ImagesSoccer/VR107.5.png","190","test",".","image-keyboard-response","474","311368","0.0-4.0-1.145","true"
"651","ImagesDirect/VL92.5.png","188","test",".","image-keyboard-response","476","312522","0.0-4.0-1.146","false"
"467","ImagesTennis/TL92.5.png","188","test",".","image-keyboard-response","478","313492","0.0-4.0-1.147","false"
"411","ImagesDirect/VL105.png","188","test",",","image-keyboard-response","480","314406","0.0-4.0-1.148","true"
"392","ImagesDirect/VL95.png","188","test",".","image-keyboard-response","482","315303","0.0-4.0-1.149","false"
"445","ImagesTennis/TR105.png","190","test",".","image-keyboard-response","484","316250","0.0-4.0-1.150","true"
"429","ImagesDirect/VR105.png","188","test",".","image-keyboard-response","486","317180","0.0-4.0-1.151","false"
"551","ImagesSoccer/VR92.5.png","190","test",",","image-keyboard-response","488","318234","0.0-4.0-1.152","false"
"774","ImagesTennis/TR92.5.png","190","test",",","image-keyboard-response","490","319509","0.0-4.0-1.153","false"
"611","ImagesSoccer/VR105.png","190","test",".","image-keyboard-response","492","320623","0.0-4.0-1.154","true"
"661","ImagesDirect/VR92.5.png","188","test",",","image-keyboard-response","494","321786","0.0-4.0-1.155","true"
"453","ImagesTennis/TL107.5.png","188","test",",","image-keyboard-response","496","322741","0.0-4.0-1.156","true"
"574","ImagesDirect/VL97.5.png","188","test",".","image-keyboard-response","498","323818","0.0-4.0-1.157","false"
"511","ImagesTennis/TR97.5.png","190","test",",","image-keyboard-response","500","324833","0.0-4.0-1.158","false"
"631","ImagesSoccer/VL105.png","188","test",",","image-keyboard-response","502","325966","0.0-4.0-1.159","true"
"531","ImagesDirect/VR102.5.png","188","test",".","image-keyboard-response","504","326999","0.0-4.0-1.160","false"
"399","ImagesTennis/TR110.png","190","test",".","image-keyboard-response","506","327902","0.0-4.0-1.161","true"
"473","ImagesTennis/TR100.png","190","test",".","image-keyboard-response","508","328879","0.0-4.0-1.162","true"
"578","ImagesDirect/VR105.png","190","test",".","image-keyboard-response","510","329960","0.0-4.0-1.163","true"
"615","ImagesDirect/VL105.png","188","test",",","image-keyboard-response","512","331079","0.0-4.0-1.164","true"
"603","ImagesSoccer/VL107.5.png","188","test",",","image-keyboard-response","514","332184","0.0-4.0-1.165","true"
"466","ImagesSoccer/VL102.5.png","188","test",",","image-keyboard-response","516","333153","0.0-4.0-1.166","true"
"554","ImagesSoccer/VR102.5.png","190","test",".","image-keyboard-response","518","334212","0.0-4.0-1.167","true"
"422","ImagesSoccer/VR100.png","190","test",".","image-keyboard-response","520","335136","0.0-4.0-1.168","true"
"412","ImagesTennis/TR105.png","190","test",".","image-keyboard-response","522","336052","0.0-4.0-1.169","true"
"388","ImagesTennis/TL95.png","188","test",".","image-keyboard-response","524","336943","0.0-4.0-1.170","false"
"397","ImagesSoccer/VR95.png","190","test",",","image-keyboard-response","526","337843","0.0-4.0-1.171","false"
"447","ImagesSoccer/VL92.5.png","188","test",".","image-keyboard-response","528","338794","0.0-4.0-1.172","false"
"393","ImagesDirect/VR97.5.png","190","test",",","image-keyboard-response","530","339692","0.0-4.0-1.173","false"
"678","ImagesDirect/VL110.png","188","test",",","image-keyboard-response","532","340872","0.0-4.0-1.174","true"
"489","ImagesTennis/TR110.png","190","test",".","image-keyboard-response","534","341865","0.0-4.0-1.175","true"
"635","ImagesDirect/VL92.5.png","188","test",".","image-keyboard-response","536","343002","0.0-4.0-1.176","false"
"411","ImagesDirect/VL95.png","188","test",".","image-keyboard-response","538","343915","0.0-4.0-1.177","false"
"531","ImagesTennis/TL90.png","188","test",".","image-keyboard-response","540","344952","0.0-4.0-1.178","false"
"431","ImagesTennis/TR90.png","190","test",",","image-keyboard-response","542","345886","0.0-4.0-1.179","false"
"996","ImagesTennis/TR97.5.png","190","test",",","image-keyboard-response","544","347386","0.0-4.0-1.180","false"
"724","ImagesDirect/VR95.png","190","test",",","image-keyboard-response","546","348614","0.0-4.0-1.181","false"
"426","ImagesSoccer/VR107.5.png","190","test",".","image-keyboard-response","548","349543","0.0-4.0-1.182","true"
"352","ImagesDirect/VR100.png","190","test",".","image-keyboard-response","550","350399","0.0-4.0-1.183","true"
"446","ImagesDirect/VL102.5.png","188","test",",","image-keyboard-response","552","351349","0.0-4.0-1.184","true"
"397","ImagesSoccer/VR97.5.png","190","test",",","image-keyboard-response","554","352249","0.0-4.0-1.185","false"
"272","ImagesDirect/VL97.5.png","188","test",".","image-keyboard-response","556","353024","0.0-4.0-1.186","false"
"265","ImagesSoccer/VR92.5.png","190","test",",","image-keyboard-response","558","353791","0.0-4.0-1.187","false"
"849","ImagesDirect/VL90.png","190","test",".","image-keyboard-response","560","355144","0.0-4.0-1.188","true"
"403","ImagesTennis/TL100.png","188","test",".","image-keyboard-response","562","356049","0.0-4.0-1.189","false"
"635","ImagesDirect/VL100.png","188","test",".","image-keyboard-response","564","357185","0.0-4.0-1.190","false"
"409","ImagesSoccer/VR110.png","190","test",".","image-keyboard-response","566","358096","0.0-4.0-1.191","true"
"452","ImagesTennis/TL105.png","188","test",",","image-keyboard-response","568","359050","0.0-4.0-1.192","true"
"745","ImagesDirect/VR102.5.png","190","test",".","image-keyboard-response","570","360297","0.0-4.0-1.193","true"
"347","ImagesTennis/TL110.png","188","test",",","image-keyboard-response","572","361148","0.0-4.0-1.194","true"
"395","ImagesSoccer/VL95.png","188","test",".","image-keyboard-response","574","362046","0.0-4.0-1.195","false"
"417","ImagesTennis/TL97.5.png","188","test",".","image-keyboard-response","576","362966","0.0-4.0-1.196","false"
"394","ImagesSoccer/VL90.png","188","test",".","image-keyboard-response","578","363865","0.0-4.0-1.197","false"
"525","ImagesDirect/VL107.5.png","188","test",",","image-keyboard-response","580","364892","0.0-4.0-1.198","true"
"407","ImagesDirect/VR110.png","190","test",".","image-keyboard-response","582","365802","0.0-4.0-1.199","true"
"464","ImagesTennis/TL92.5.png","188","test",".","image-keyboard-response","584","366770","0.0-4.0-1.200","false"
"385","ImagesSoccer/VR105.png","190","test",".","image-keyboard-response","586","367659","0.0-4.0-1.201","true"
"473","ImagesDirect/VR92.5.png","190","test",",","image-keyboard-response","588","368634","0.0-4.0-1.202","false"
"383","ImagesSoccer/VL100.png","188","test",".","image-keyboard-response","590","369520","0.0-4.0-1.203","false"
"289","ImagesDirect/VR90.png","190","test",",","image-keyboard-response","592","370310","0.0-4.0-1.204","false"
"590","ImagesDirect/VR107.5.png","190","test",".","image-keyboard-response","594","371403","0.0-4.0-1.205","true"
"430","ImagesSoccer/VR90.png","190","test",",","image-keyboard-response","596","372336","0.0-4.0-1.206","false"
"435","ImagesTennis/TL102.5.png","188","test",",","image-keyboard-response","598","373275","0.0-4.0-1.207","true"
"302","ImagesTennis/TR95.png","190","test",",","image-keyboard-response","600","374080","0.0-4.0-1.208","false"
"352","ImagesSoccer/VL105.png","188","test",",","image-keyboard-response","602","374934","0.0-4.0-1.209","true"
"359","ImagesTennis/TR107.5.png","190","test",".","image-keyboard-response","604","375797","0.0-4.0-1.210","true"
"363","ImagesSoccer/VL97.5.png","188","test",".","image-keyboard-response","606","376663","0.0-4.0-1.211","false"
"333","ImagesTennis/TR102.5.png","190","test",".","image-keyboard-response","608","377499","0.0-4.0-1.212","true"
"266","ImagesTennis/TL107.5.png","188","test",",","image-keyboard-response","610","378268","0.0-4.0-1.213","true"
"484","ImagesSoccer/VL110.png","188","test",",","image-keyboard-response","612","379255","0.0-4.0-1.214","true"
"229","ImagesTennis/TR92.5.png","190","test",",","image-keyboard-response","614","379989","0.0-4.0-1.215","false"
"296","ImagesSoccer/VL107.5.png","188","test",",","image-keyboard-response","616","380789","0.0-4.0-1.216","true"
"286","ImagesDirect/VL102.5.png","190","test",",","image-keyboard-response","618","381577","0.0-4.0-1.217","false"
"474","ImagesDirect/VR100.png","190","test",".","image-keyboard-response","620","382554","0.0-4.0-1.218","true"
"368","ImagesDirect/VL100.png","188","test",".","image-keyboard-response","622","383424","0.0-4.0-1.219","false"
"342","ImagesSoccer/VR105.png","190","test",".","image-keyboard-response","624","384268","0.0-4.0-1.220","true"
"541","ImagesDirect/VL95.png","188","test",".","image-keyboard-response","626","385311","0.0-4.0-1.221","false"
"592","ImagesDirect/VR105.png","190","test",".","image-keyboard-response","628","386405","0.0-4.0-1.222","true"
"503","ImagesTennis/TL100.png","188","test",".","image-keyboard-response","630","387412","0.0-4.0-1.223","false"
"412","ImagesTennis/TL95.png","188","test",".","image-keyboard-response","632","388327","0.0-4.0-1.224","false"
"313","ImagesSoccer/VR90.png","190","test",",","image-keyboard-response","634","389143","0.0-4.0-1.225","false"
"775","ImagesTennis/TR95.png","188","test",",","image-keyboard-response","636","390423","0.0-4.0-1.226","true"
"505","ImagesTennis/TR100.png","190","test",".","image-keyboard-response","638","391430","0.0-4.0-1.227","true"
"471","ImagesSoccer/VR95.png","190","test",",","image-keyboard-response","640","392405","0.0-4.0-1.228","false"
"423","ImagesSoccer/VR97.5.png","190","test",",","image-keyboard-response","642","393332","0.0-4.0-1.229","false"
"546","ImagesDirect/VR92.5.png","188","test",",","image-keyboard-response","644","394382","0.0-4.0-1.230","true"
"591","ImagesTennis/TL92.5.png","188","test",".","image-keyboard-response","646","395475","0.0-4.0-1.231","false"
"353","ImagesTennis/TR90.png","190","test",",","image-keyboard-response","648","396332","0.0-4.0-1.232","false"
"424","ImagesTennis/TR105.png","190","test",".","image-keyboard-response","650","397259","0.0-4.0-1.233","true"
"407","ImagesSoccer/VR102.5.png","190","test",".","image-keyboard-response","652","398168","0.0-4.0-1.234","true"
"445","ImagesTennis/TL90.png","188","test",".","image-keyboard-response","654","399116","0.0-4.0-1.235","false"
"520","ImagesDirect/VR90.png","190","test",",","image-keyboard-response","656","400138","0.0-4.0-1.236","false"
"634","ImagesSoccer/VL100.png","188","test",".","image-keyboard-response","658","401274","0.0-4.0-1.237","false"
"389","ImagesSoccer/VL105.png","188","test",",","image-keyboard-response","660","402166","0.0-4.0-1.238","true"
"449","ImagesDirect/VL107.5.png","188","test",",","image-keyboard-response","662","403118","0.0-4.0-1.239","true"
"852","ImagesDirect/VR97.5.png","190","test",",","image-keyboard-response","664","404473","0.0-4.0-1.240","false"
"429","ImagesDirect/VR102.5.png","190","test",".","image-keyboard-response","666","405405","0.0-4.0-1.241","true"
"846","ImagesDirect/VL92.5.png","188","test",".","image-keyboard-response","668","406756","0.0-4.0-1.242","false"
"458","ImagesDirect/VL105.png","188","test",",","image-keyboard-response","670","407717","0.0-4.0-1.243","true"
"376","ImagesTennis/TR102.5.png","190","test",".","image-keyboard-response","672","408596","0.0-4.0-1.244","true"
"489","ImagesDirect/VL90.png","190","test",".","image-keyboard-response","674","409587","0.0-4.0-1.245","true"
"445","ImagesDirect/VR110.png","188","test",".","image-keyboard-response","676","410534","0.0-4.0-1.246","false"
"533","ImagesTennis/TR110.png","190","test",".","image-keyboard-response","678","411570","0.0-4.0-1.247","true"
"388","ImagesSoccer/VL97.5.png","188","test",".","image-keyboard-response","680","412460","0.0-4.0-1.248","false"
"300","ImagesSoccer/VR110.png","190","test",".","image-keyboard-response","682","413263","0.0-4.0-1.249","true"
"352","ImagesTennis/TL105.png","188","test",",","image-keyboard-response","684","414120","0.0-4.0-1.250","true"
"401","ImagesSoccer/VL95.png","188","test",".","image-keyboard-response","686","415025","0.0-4.0-1.251","false"
"358","ImagesTennis/TL107.5.png","188","test",",","image-keyboard-response","688","415885","0.0-4.0-1.252","true"
"343","ImagesTennis/TL102.5.png","188","test",",","image-keyboard-response","690","416735","0.0-4.0-1.253","true"
"388","ImagesSoccer/VL92.5.png","188","test",".","image-keyboard-response","692","417626","0.0-4.0-1.254","false"
"351","ImagesTennis/TR97.5.png","188","test",",","image-keyboard-response","694","418479","0.0-4.0-1.255","true"
"413","ImagesSoccer/VL110.png","188","test",",","image-keyboard-response","696","419396","0.0-4.0-1.256","true"
"396","ImagesSoccer/VR92.5.png","190","test",",","image-keyboard-response","698","420294","0.0-4.0-1.257","false"
"603","ImagesSoccer/VL102.5.png","188","test",",","image-keyboard-response","700","421399","0.0-4.0-1.258","true"
"498","ImagesDirect/VR95.png","190","test",",","image-keyboard-response","702","422400","0.0-4.0-1.259","false"
"315","ImagesTennis/TR92.5.png","188","test",",","image-keyboard-response","704","423217","0.0-4.0-1.260","true"
"479","ImagesDirect/VL110.png","188","test",",","image-keyboard-response","706","424200","0.0-4.0-1.261","true"
"345","ImagesDirect/VL97.5.png","188","test",".","image-keyboard-response","708","425048","0.0-4.0-1.262","false"
"381","ImagesSoccer/VL90.png","188","test",".","image-keyboard-response","710","425933","0.0-4.0-1.263","false"
"285","ImagesTennis/TL97.5.png","188","test",".","image-keyboard-response","712","426721","0.0-4.0-1.264","false"
"491","ImagesTennis/TR107.5.png","190","test",".","image-keyboard-response","714","427717","0.0-4.0-1.265","true"
"402","ImagesSoccer/VR100.png","190","test",".","image-keyboard-response","716","428622","0.0-4.0-1.266","true"
"367","ImagesTennis/TL110.png","188","test",",","image-keyboard-response","718","429491","0.0-4.0-1.267","true"
"420","ImagesSoccer/VR107.5.png","190","test",".","image-keyboard-response","720","430413","0.0-4.0-1.268","true"
"457","ImagesDirect/VR107.5.png","190","test",".","image-keyboard-response","722","431372","0.0-4.0-1.269","true"
