rt;stimulus;key_press;test_part;correct_response;trial_type;trial_index;time_elapsed;internal_node_id;correct
830;ImagesTennis/TL95.png;190;test;.;image-keyboard-response;4;37401;0.0-3.0-1.0;true
1216;ImagesDirect/VR95.png;190;test;,;image-keyboard-response;6;39121;0.0-3.0-1.1;false
1079;ImagesTennis/TR107.5.png;190;test;.;image-keyboard-response;8;40703;0.0-3.0-1.2;true
723;ImagesTennis/TR110.png;190;test;.;image-keyboard-response;10;41929;0.0-3.0-1.3;true
710;ImagesTennis/TR92.5.png;188;test;,;image-keyboard-response;12;43143;0.0-3.0-1.4;true
891;ImagesSoccer/VL92.5.png;190;test;.;image-keyboard-response;14;44536;0.0-3.0-1.5;true
577;ImagesDirect/VL110.png;188;test;,;image-keyboard-response;16;45617;0.0-3.0-1.6;true
624;ImagesSoccer/VL107.5.png;188;test;,;image-keyboard-response;18;46744;0.0-3.0-1.7;true
786;ImagesDirect/VR92.5.png;188;test;,;image-keyboard-response;20;48033;0.0-3.0-1.8;true
792;ImagesSoccer/VR90.png;188;test;,;image-keyboard-response;22;49329;0.0-3.0-1.9;true
1058;ImagesDirect/VR90.png;188;test;,;image-keyboard-response;24;50889;0.0-3.0-1.10;true
577;ImagesDirect/VR110.png;190;test;.;image-keyboard-response;26;51968;0.0-3.0-1.11;true
955;ImagesSoccer/VL100.png;188;test;.;image-keyboard-response;28;53425;0.0-3.0-1.12;false
642;ImagesSoccer/VR97.5.png;190;test;,;image-keyboard-response;30;54570;0.0-3.0-1.13;false
823;ImagesTennis/TR97.5.png;188;test;,;image-keyboard-response;32;55896;0.0-3.0-1.14;true
754;ImagesSoccer/VL102.5.png;188;test;,;image-keyboard-response;34;57153;0.0-3.0-1.15;true
704;ImagesTennis/TL102.5.png;190;test;,;image-keyboard-response;36;58360;0.0-3.0-1.16;false
570;ImagesDirect/VL90.png;190;test;.;image-keyboard-response;38;59433;0.0-3.0-1.17;true
759;ImagesSoccer/VR95.png;188;test;,;image-keyboard-response;40;60697;0.0-3.0-1.18;true
591;ImagesDirect/VR102.5.png;190;test;.;image-keyboard-response;42;61793;0.0-3.0-1.19;true
583;ImagesTennis/TL107.5.png;188;test;,;image-keyboard-response;44;62881;0.0-3.0-1.20;true
497;ImagesDirect/VR100.png;190;test;.;image-keyboard-response;46;63881;0.0-3.0-1.21;true
703;ImagesTennis/TL110.png;188;test;,;image-keyboard-response;48;65088;0.0-3.0-1.22;true
547;ImagesSoccer/VR100.png;190;test;.;image-keyboard-response;50;66136;0.0-3.0-1.23;true
682;ImagesTennis/TL90.png;190;test;.;image-keyboard-response;52;67321;0.0-3.0-1.24;true
928;ImagesDirect/VL97.5.png;188;test;.;image-keyboard-response;54;68753;0.0-3.0-1.25;false
1673;ImagesSoccer/VR92.5.png;188;test;,;image-keyboard-response;56;70928;0.0-3.0-1.26;true
672;ImagesTennis/TR105.png;190;test;.;image-keyboard-response;58;72104;0.0-3.0-1.27;true
648;ImagesTennis/TR95.png;188;test;,;image-keyboard-response;60;73255;0.0-3.0-1.28;true
738;ImagesDirect/VL95.png;190;test;.;image-keyboard-response;62;74496;0.0-3.0-1.29;true
595;ImagesSoccer/VL90.png;190;test;.;image-keyboard-response;64;75594;0.0-3.0-1.30;true
623;ImagesTennis/TL105.png;188;test;,;image-keyboard-response;66;76720;0.0-3.0-1.31;true
881;ImagesTennis/TR102.5.png;190;test;.;image-keyboard-response;68;78105;0.0-3.0-1.32;true
541;ImagesSoccer/VR110.png;190;test;.;image-keyboard-response;70;79152;0.0-3.0-1.33;true
530;ImagesDirect/VL105.png;188;test;,;image-keyboard-response;72;80185;0.0-3.0-1.34;true
553;ImagesSoccer/VL110.png;188;test;,;image-keyboard-response;74;81241;0.0-3.0-1.35;true
537;ImagesTennis/TR90.png;190;test;,;image-keyboard-response;76;82280;0.0-3.0-1.36;false
546;ImagesSoccer/VR107.5.png;190;test;.;image-keyboard-response;78;83329;0.0-3.0-1.37;true
520;ImagesSoccer/VR105.png;190;test;.;image-keyboard-response;80;84352;0.0-3.0-1.38;true
971;ImagesTennis/TL100.png;190;test;.;image-keyboard-response;82;85825;0.0-3.0-1.39;true
601;ImagesSoccer/VL95.png;190;test;.;image-keyboard-response;84;86928;0.0-3.0-1.40;true
480;ImagesDirect/VL107.5.png;188;test;,;image-keyboard-response;86;87912;0.0-3.0-1.41;true
504;ImagesSoccer/VL105.png;188;test;,;image-keyboard-response;88;88920;0.0-3.0-1.42;true
472;ImagesTennis/TL92.5.png;190;test;.;image-keyboard-response;90;89897;0.0-3.0-1.43;true
563;ImagesTennis/TL97.5.png;190;test;.;image-keyboard-response;92;90961;0.0-3.0-1.44;true
680;ImagesSoccer/VL97.5.png;190;test;.;image-keyboard-response;94;92144;0.0-3.0-1.45;true
963;ImagesTennis/TR100.png;188;test;.;image-keyboard-response;96;93609;0.0-3.0-1.46;false
1622;ImagesDirect/VR97.5.png;190;test;,;image-keyboard-response;98;95735;0.0-3.0-1.47;false
812;ImagesDirect/VL100.png;188;test;.;image-keyboard-response;100;97049;0.0-3.0-1.48;false
655;ImagesDirect/VL102.5.png;188;test;,;image-keyboard-response;102;98207;0.0-3.0-1.49;true
500;ImagesSoccer/VR102.5.png;190;test;.;image-keyboard-response;104;99209;0.0-3.0-1.50;true
537;ImagesDirect/VR107.5.png;190;test;.;image-keyboard-response;106;100249;0.0-3.0-1.51;true
1225;ImagesDirect/VL92.5.png;190;test;.;image-keyboard-response;108;101976;0.0-3.0-1.52;true
553;ImagesDirect/VR105.png;190;test;.;image-keyboard-response;110;103032;0.0-3.0-1.53;true
1007;ImagesDirect/VL92.5.png;190;test;.;image-keyboard-response;112;104543;0.0-3.0-1.54;true
858;ImagesDirect/VL90.png;190;test;.;image-keyboard-response;114;105904;0.0-3.0-1.55;true
544;ImagesDirect/VR110.png;190;test;.;image-keyboard-response;116;106953;0.0-3.0-1.56;true
585;ImagesSoccer/VL92.5.png;190;test;.;image-keyboard-response;118;108041;0.0-3.0-1.57;true
529;ImagesTennis/TR105.png;188;test;.;image-keyboard-response;120;109072;0.0-3.0-1.58;false
480;ImagesTennis/TR110.png;190;test;.;image-keyboard-response;122;110056;0.0-3.0-1.59;true
528;ImagesTennis/TR92.5.png;188;test;,;image-keyboard-response;124;111088;0.0-3.0-1.60;true
504;ImagesSoccer/VL105.png;188;test;,;image-keyboard-response;126;112096;0.0-3.0-1.61;true
480;ImagesTennis/TL110.png;188;test;,;image-keyboard-response;128;113081;0.0-3.0-1.62;true
1417;ImagesTennis/TL107.5.png;188;test;,;image-keyboard-response;130;115000;0.0-3.0-1.63;true
2360;ImagesSoccer/VL97.5.png;188;test;.;image-keyboard-response;132;117865;0.0-3.0-1.64;false
2577;ImagesTennis/TL102.5.png;190;test;,;image-keyboard-response;134;120945;0.0-3.0-1.65;false
623;ImagesTennis/TR95.png;188;test;,;image-keyboard-response;136;122072;0.0-3.0-1.66;true
497;ImagesDirect/VL110.png;188;test;,;image-keyboard-response;138;123073;0.0-3.0-1.67;true
776;ImagesDirect/VR95.png;188;test;,;image-keyboard-response;140;124353;0.0-3.0-1.68;true
442;ImagesDirect/VR105.png;190;test;.;image-keyboard-response;142;125297;0.0-3.0-1.69;true
464;ImagesSoccer/VR105.png;190;test;.;image-keyboard-response;144;126265;0.0-3.0-1.70;true
400;ImagesSoccer/VL107.5.png;188;test;,;image-keyboard-response;146;127169;0.0-3.0-1.71;true
703;ImagesSoccer/VL102.5.png;188;test;,;image-keyboard-response;148;128377;0.0-3.0-1.72;true
440;ImagesTennis/TL90.png;190;test;.;image-keyboard-response;150;129320;0.0-3.0-1.73;true
897;ImagesDirect/VR97.5.png;190;test;,;image-keyboard-response;152;130719;0.0-3.0-1.74;false
388;ImagesSoccer/VL100.png;188;test;.;image-keyboard-response;154;131609;0.0-3.0-1.75;false
793;ImagesSoccer/VR95.png;188;test;,;image-keyboard-response;156;132905;0.0-3.0-1.76;true
489;ImagesTennis/TR107.5.png;190;test;.;image-keyboard-response;158;133897;0.0-3.0-1.77;true
1064;ImagesTennis/TL97.5.png;190;test;.;image-keyboard-response;160;135463;0.0-3.0-1.78;true
436;ImagesDirect/VR100.png;190;test;.;image-keyboard-response;162;136401;0.0-3.0-1.79;true
1047;ImagesSoccer/VR100.png;190;test;.;image-keyboard-response;164;137953;0.0-3.0-1.80;true
1264;ImagesSoccer/VL95.png;190;test;.;image-keyboard-response;166;139720;0.0-3.0-1.81;true
529;ImagesTennis/TR97.5.png;188;test;,;image-keyboard-response;168;140752;0.0-3.0-1.82;true
730;ImagesDirect/VR90.png;190;test;,;image-keyboard-response;170;141985;0.0-3.0-1.83;false
1200;ImagesDirect/VR107.5.png;190;test;.;image-keyboard-response;172;143689;0.0-3.0-1.84;true
633;ImagesSoccer/VL110.png;188;test;,;image-keyboard-response;174;144825;0.0-3.0-1.85;true
736;ImagesSoccer/VR107.5.png;190;test;.;image-keyboard-response;176;146065;0.0-3.0-1.86;true
856;ImagesDirect/VR92.5.png;190;test;,;image-keyboard-response;178;147425;0.0-3.0-1.87;false
695;ImagesSoccer/VL90.png;190;test;.;image-keyboard-response;180;148624;0.0-3.0-1.88;true
884;ImagesSoccer/VR97.5.png;190;test;,;image-keyboard-response;182;150009;0.0-3.0-1.89;false
672;ImagesDirect/VR102.5.png;190;test;.;image-keyboard-response;184;151185;0.0-3.0-1.90;true
456;ImagesDirect/VL105.png;188;test;,;image-keyboard-response;186;152145;0.0-3.0-1.91;true
640;ImagesTennis/TL105.png;188;test;,;image-keyboard-response;188;153289;0.0-3.0-1.92;true
866;ImagesSoccer/VR90.png;188;test;,;image-keyboard-response;190;154657;0.0-3.0-1.93;true
449;ImagesSoccer/VR102.5.png;190;test;.;image-keyboard-response;192;155609;0.0-3.0-1.94;true
1040;ImagesSoccer/VR92.5.png;190;test;,;image-keyboard-response;194;157153;0.0-3.0-1.95;false
952;ImagesDirect/VL95.png;188;test;.;image-keyboard-response;196;158609;0.0-3.0-1.96;false
472;ImagesTennis/TR100.png;188;test;.;image-keyboard-response;198;159585;0.0-3.0-1.97;false
498;ImagesTennis/TL92.5.png;190;test;.;image-keyboard-response;200;160585;0.0-3.0-1.98;true
568;ImagesTennis/TR102.5.png;188;test;.;image-keyboard-response;202;161657;0.0-3.0-1.99;false
488;ImagesDirect/VL100.png;188;test;.;image-keyboard-response;204;162649;0.0-3.0-1.100;false
544;ImagesDirect/VL97.5.png;188;test;.;image-keyboard-response;206;163697;0.0-3.0-1.101;false
728;ImagesTennis/TL100.png;190;test;.;image-keyboard-response;208;164929;0.0-3.0-1.102;true
472;ImagesDirect/VL102.5.png;188;test;,;image-keyboard-response;210;165905;0.0-3.0-1.103;true
496;ImagesDirect/VL107.5.png;188;test;,;image-keyboard-response;212;166905;0.0-3.0-1.104;true
447;ImagesSoccer/VR110.png;190;test;.;image-keyboard-response;214;167857;0.0-3.0-1.105;true
464;ImagesTennis/TR90.png;188;test;,;image-keyboard-response;216;168824;0.0-3.0-1.106;true
418;ImagesTennis/TL95.png;190;test;.;image-keyboard-response;218;169745;0.0-3.0-1.107;true
632;ImagesSoccer/VL100.png;188;test;.;image-keyboard-response;220;170881;0.0-3.0-1.108;false
408;ImagesTennis/TL90.png;190;test;.;image-keyboard-response;222;171793;0.0-3.0-1.109;true
499;ImagesTennis/TL97.5.png;190;test;.;image-keyboard-response;224;172794;0.0-3.0-1.110;true
432;ImagesTennis/TL92.5.png;190;test;.;image-keyboard-response;226;173729;0.0-3.0-1.111;true
513;ImagesTennis/TL107.5.png;188;test;,;image-keyboard-response;228;174745;0.0-3.0-1.112;true
535;ImagesTennis/TR90.png;188;test;,;image-keyboard-response;230;175784;0.0-3.0-1.113;true
442;ImagesDirect/VL110.png;188;test;,;image-keyboard-response;232;176729;0.0-3.0-1.114;true
574;ImagesSoccer/VL105.png;188;test;,;image-keyboard-response;234;177807;0.0-3.0-1.115;true
436;ImagesTennis/TL105.png;190;test;,;image-keyboard-response;236;178745;0.0-3.0-1.116;false
456;ImagesDirect/VL105.png;188;test;,;image-keyboard-response;238;179706;0.0-3.0-1.117;true
823;ImagesTennis/TR95.png;188;test;,;image-keyboard-response;240;181033;0.0-3.0-1.118;true
481;ImagesTennis/TR92.5.png;188;test;,;image-keyboard-response;242;182017;0.0-3.0-1.119;true
464;ImagesSoccer/VR110.png;190;test;.;image-keyboard-response;244;182985;0.0-3.0-1.120;true
536;ImagesSoccer/VR90.png;188;test;,;image-keyboard-response;246;184024;0.0-3.0-1.121;true
490;ImagesSoccer/VL90.png;190;test;.;image-keyboard-response;248;185017;0.0-3.0-1.122;true
408;ImagesDirect/VL102.5.png;188;test;,;image-keyboard-response;250;185929;0.0-3.0-1.123;true
719;ImagesSoccer/VR92.5.png;188;test;,;image-keyboard-response;252;187152;0.0-3.0-1.124;true
450;ImagesTennis/TL102.5.png;190;test;,;image-keyboard-response;254;188104;0.0-3.0-1.125;false
849;ImagesSoccer/VL92.5.png;190;test;.;image-keyboard-response;256;189457;0.0-3.0-1.126;true
601;ImagesTennis/TR105.png;190;test;.;image-keyboard-response;258;190561;0.0-3.0-1.127;true
551;ImagesSoccer/VR107.5.png;190;test;.;image-keyboard-response;260;191615;0.0-3.0-1.128;true
735;ImagesDirect/VR97.5.png;188;test;,;image-keyboard-response;262;192855;0.0-3.0-1.129;true
532;ImagesSoccer/VR100.png;190;test;.;image-keyboard-response;264;193889;0.0-3.0-1.130;true
480;ImagesTennis/TL100.png;188;test;.;image-keyboard-response;266;194873;0.0-3.0-1.131;false
759;ImagesDirect/VL97.5.png;188;test;.;image-keyboard-response;268;196136;0.0-3.0-1.132;false
480;ImagesTennis/TL110.png;190;test;,;image-keyboard-response;270;197121;0.0-3.0-1.133;false
473;ImagesDirect/VR107.5.png;190;test;.;image-keyboard-response;272;198097;0.0-3.0-1.134;true
423;ImagesDirect/VL107.5.png;188;test;,;image-keyboard-response;274;199024;0.0-3.0-1.135;true
593;ImagesTennis/TR107.5.png;190;test;.;image-keyboard-response;276;200120;0.0-3.0-1.136;true
417;ImagesDirect/VL100.png;188;test;.;image-keyboard-response;278;201040;0.0-3.0-1.137;false
882;ImagesDirect/VL95.png;188;test;.;image-keyboard-response;280;202425;0.0-3.0-1.138;false
576;ImagesDirect/VR92.5.png;188;test;,;image-keyboard-response;282;203504;0.0-3.0-1.139;true
792;ImagesSoccer/VL97.5.png;190;test;.;image-keyboard-response;284;204800;0.0-3.0-1.140;true
512;ImagesDirect/VR102.5.png;190;test;.;image-keyboard-response;286;205816;0.0-3.0-1.141;true
426;ImagesSoccer/VL107.5.png;188;test;,;image-keyboard-response;288;206745;0.0-3.0-1.142;true
584;ImagesDirect/VL90.png;190;test;.;image-keyboard-response;290;207833;0.0-3.0-1.143;true
848;ImagesDirect/VR100.png;188;test;.;image-keyboard-response;292;209185;0.0-3.0-1.144;false
424;ImagesTennis/TR97.5.png;188;test;,;image-keyboard-response;294;210112;0.0-3.0-1.145;true
488;ImagesTennis/TR110.png;190;test;.;image-keyboard-response;296;211104;0.0-3.0-1.146;true
513;ImagesSoccer/VR105.png;190;test;.;image-keyboard-response;298;212121;0.0-3.0-1.147;true
504;ImagesSoccer/VL95.png;188;test;.;image-keyboard-response;300;213128;0.0-3.0-1.148;false
435;ImagesDirect/VR105.png;190;test;.;image-keyboard-response;302;214065;0.0-3.0-1.149;true
386;ImagesDirect/VR110.png;190;test;.;image-keyboard-response;304;214953;0.0-3.0-1.150;true
615;ImagesDirect/VR95.png;188;test;,;image-keyboard-response;306;216072;0.0-3.0-1.151;true
473;ImagesTennis/TR102.5.png;188;test;.;image-keyboard-response;308;217048;0.0-3.0-1.152;false
498;ImagesSoccer/VL110.png;188;test;,;image-keyboard-response;310;218049;0.0-3.0-1.153;true
383;ImagesSoccer/VR95.png;190;test;,;image-keyboard-response;312;218936;0.0-3.0-1.154;false
712;ImagesDirect/VL92.5.png;190;test;.;image-keyboard-response;314;220152;0.0-3.0-1.155;true
722;ImagesSoccer/VR97.5.png;188;test;,;image-keyboard-response;316;221377;0.0-3.0-1.156;true
545;ImagesTennis/TL95.png;190;test;.;image-keyboard-response;318;222424;0.0-3.0-1.157;true
457;ImagesSoccer/VL102.5.png;188;test;,;image-keyboard-response;320;223385;0.0-3.0-1.158;true
505;ImagesDirect/VR90.png;188;test;,;image-keyboard-response;322;224393;0.0-3.0-1.159;true
744;ImagesTennis/TR100.png;188;test;.;image-keyboard-response;324;225641;0.0-3.0-1.160;false
1415;ImagesSoccer/VR102.5.png;188;test;.;image-keyboard-response;326;227561;0.0-3.0-1.161;false
576;ImagesTennis/TL110.png;188;test;,;image-keyboard-response;328;228639;0.0-3.0-1.162;true
898;ImagesSoccer/VR90.png;188;test;,;image-keyboard-response;330;230040;0.0-3.0-1.163;true
592;ImagesSoccer/VL102.5.png;188;test;,;image-keyboard-response;332;231136;0.0-3.0-1.164;true
1001;ImagesSoccer/VR92.5.png;188;test;,;image-keyboard-response;334;232640;0.0-3.0-1.165;true
488;ImagesDirect/VL107.5.png;188;test;,;image-keyboard-response;336;233633;0.0-3.0-1.166;true
561;ImagesDirect/VR100.png;190;test;.;image-keyboard-response;338;234696;0.0-3.0-1.167;true
505;ImagesDirect/VL100.png;188;test;.;image-keyboard-response;340;235705;0.0-3.0-1.168;false
936;ImagesDirect/VL90.png;188;test;.;image-keyboard-response;342;237145;0.0-3.0-1.169;false
703;ImagesTennis/TR92.5.png;188;test;,;image-keyboard-response;344;238353;0.0-3.0-1.170;true
833;ImagesTennis/TL107.5.png;188;test;,;image-keyboard-response;346;239688;0.0-3.0-1.171;true
944;ImagesSoccer/VL95.png;188;test;.;image-keyboard-response;348;241136;0.0-3.0-1.172;false
753;ImagesSoccer/VR102.5.png;190;test;.;image-keyboard-response;350;242392;0.0-3.0-1.173;true
1616;ImagesTennis/TL105.png;188;test;,;image-keyboard-response;352;244512;0.0-3.0-1.174;true
481;ImagesSoccer/VL107.5.png;188;test;,;image-keyboard-response;354;245497;0.0-3.0-1.175;true
577;ImagesDirect/VL92.5.png;190;test;.;image-keyboard-response;356;246577;0.0-3.0-1.176;true
567;ImagesSoccer/VL110.png;188;test;,;image-keyboard-response;358;247648;0.0-3.0-1.177;true
856;ImagesDirect/VR90.png;188;test;,;image-keyboard-response;360;249008;0.0-3.0-1.178;true
1152;ImagesTennis/TR100.png;188;test;.;image-keyboard-response;362;250664;0.0-3.0-1.179;false
1385;ImagesDirect/VR97.5.png;190;test;,;image-keyboard-response;364;252553;0.0-3.0-1.180;false
1225;ImagesSoccer/VR100.png;190;test;.;image-keyboard-response;366;254281;0.0-3.0-1.181;true
721;ImagesSoccer/VR95.png;188;test;,;image-keyboard-response;368;255505;0.0-3.0-1.182;true
513;ImagesDirect/VL105.png;188;test;,;image-keyboard-response;370;256521;0.0-3.0-1.183;true
746;ImagesSoccer/VL90.png;190;test;.;image-keyboard-response;372;257769;0.0-3.0-1.184;true
897;ImagesTennis/TL100.png;188;test;.;image-keyboard-response;374;259169;0.0-3.0-1.185;false
1126;ImagesDirect/VL95.png;188;test;.;image-keyboard-response;376;260799;0.0-3.0-1.186;false
1307;ImagesTennis/TR102.5.png;190;test;.;image-keyboard-response;378;262609;0.0-3.0-1.187;true
680;ImagesTennis/TL95.png;190;test;.;image-keyboard-response;380;263792;0.0-3.0-1.188;true
1217;ImagesTennis/TR90.png;188;test;,;image-keyboard-response;382;265512;0.0-3.0-1.189;true
1362;ImagesTennis/TL97.5.png;188;test;.;image-keyboard-response;384;267377;0.0-3.0-1.190;false
665;ImagesDirect/VR110.png;190;test;.;image-keyboard-response;386;268545;0.0-3.0-1.191;true
449;ImagesSoccer/VR105.png;190;test;.;image-keyboard-response;388;269497;0.0-3.0-1.192;true
1423;ImagesTennis/TR110.png;190;test;.;image-keyboard-response;390;271425;0.0-3.0-1.193;true
443;ImagesDirect/VR105.png;190;test;.;image-keyboard-response;392;272370;0.0-3.0-1.194;true
465;ImagesDirect/VL110.png;188;test;,;image-keyboard-response;394;273337;0.0-3.0-1.195;true
1023;ImagesSoccer/VL97.5.png;188;test;.;image-keyboard-response;396;274864;0.0-3.0-1.196;false
449;ImagesTennis/TR95.png;188;test;,;image-keyboard-response;398;275817;0.0-3.0-1.197;true
624;ImagesSoccer/VL100.png;188;test;.;image-keyboard-response;400;276944;0.0-3.0-1.198;false
680;ImagesTennis/TR97.5.png;188;test;,;image-keyboard-response;402;278129;0.0-3.0-1.199;true
515;ImagesSoccer/VR110.png;190;test;.;image-keyboard-response;404;279145;0.0-3.0-1.200;true
432;ImagesSoccer/VR107.5.png;190;test;.;image-keyboard-response;406;280080;0.0-3.0-1.201;true
473;ImagesDirect/VR102.5.png;190;test;.;image-keyboard-response;408;281056;0.0-3.0-1.202;true
706;ImagesDirect/VR92.5.png;188;test;,;image-keyboard-response;410;282264;0.0-3.0-1.203;true
480;ImagesDirect/VR107.5.png;190;test;.;image-keyboard-response;412;283249;0.0-3.0-1.204;true
737;ImagesSoccer/VL92.5.png;188;test;.;image-keyboard-response;414;284488;0.0-3.0-1.205;false
2224;ImagesTennis/TR105.png;190;test;.;image-keyboard-response;416;287217;0.0-3.0-1.206;true
1057;ImagesDirect/VR95.png;188;test;,;image-keyboard-response;418;288776;0.0-3.0-1.207;true
513;ImagesTennis/TL92.5.png;190;test;.;image-keyboard-response;420;289793;0.0-3.0-1.208;true
856;ImagesTennis/TR107.5.png;188;test;.;image-keyboard-response;422;291152;0.0-3.0-1.209;false
441;ImagesTennis/TL90.png;190;test;.;image-keyboard-response;424;292096;0.0-3.0-1.210;true
783;ImagesDirect/VL102.5.png;188;test;,;image-keyboard-response;426;293385;0.0-3.0-1.211;true
3521;ImagesDirect/VL97.5.png;188;test;.;image-keyboard-response;428;297410;0.0-3.0-1.212;false
1142;ImagesSoccer/VL105.png;188;test;,;image-keyboard-response;430;299057;0.0-3.0-1.213;true
1281;ImagesSoccer/VR97.5.png;188;test;,;image-keyboard-response;432;300841;0.0-3.0-1.214;true
822;ImagesTennis/TL102.5.png;188;test;,;image-keyboard-response;434;302168;0.0-3.0-1.215;true
1105;ImagesSoccer/VR102.5.png;188;test;.;image-keyboard-response;436;303776;0.0-3.0-1.216;false
761;ImagesTennis/TR95.png;188;test;,;image-keyboard-response;438;305041;0.0-3.0-1.217;true
840;ImagesDirect/VL90.png;190;test;.;image-keyboard-response;440;306385;0.0-3.0-1.218;true
514;ImagesDirect/VL110.png;188;test;,;image-keyboard-response;442;307401;0.0-3.0-1.219;true
1055;ImagesSoccer/VL105.png;188;test;,;image-keyboard-response;444;308961;0.0-3.0-1.220;true
607;ImagesTennis/TR105.png;190;test;.;image-keyboard-response;446;310071;0.0-3.0-1.221;true
964;ImagesSoccer/VR97.5.png;188;test;,;image-keyboard-response;448;311537;0.0-3.0-1.222;true
945;ImagesDirect/VL107.5.png;188;test;,;image-keyboard-response;450;312984;0.0-3.0-1.223;true
1538;ImagesSoccer/VL97.5.png;188;test;.;image-keyboard-response;452;315025;0.0-3.0-1.224;false
633;ImagesSoccer/VR92.5.png;190;test;,;image-keyboard-response;454;316160;0.0-3.0-1.225;false
1041;ImagesTennis/TR107.5.png;190;test;.;image-keyboard-response;456;317704;0.0-3.0-1.226;true
467;ImagesSoccer/VL90.png;188;test;.;image-keyboard-response;458;318673;0.0-3.0-1.227;false
1369;ImagesSoccer/VR100.png;188;test;.;image-keyboard-response;460;320545;0.0-3.0-1.228;false
930;ImagesTennis/TR110.png;190;test;.;image-keyboard-response;462;321977;0.0-3.0-1.229;true
473;ImagesDirect/VR110.png;190;test;.;image-keyboard-response;464;322953;0.0-3.0-1.230;true
400;ImagesSoccer/VL110.png;188;test;,;image-keyboard-response;466;323856;0.0-3.0-1.231;true
361;ImagesSoccer/VR107.5.png;190;test;.;image-keyboard-response;468;324720;0.0-3.0-1.232;true
409;ImagesSoccer/VL102.5.png;188;test;,;image-keyboard-response;470;325632;0.0-3.0-1.233;true
731;ImagesDirect/VR90.png;188;test;,;image-keyboard-response;472;326865;0.0-3.0-1.234;true
488;ImagesDirect/VL105.png;188;test;,;image-keyboard-response;474;327856;0.0-3.0-1.235;true
400;ImagesDirect/VR107.5.png;190;test;.;image-keyboard-response;476;328760;0.0-3.0-1.236;true
457;ImagesTennis/TL100.png;188;test;.;image-keyboard-response;478;329720;0.0-3.0-1.237;false
512;ImagesDirect/VL100.png;188;test;.;image-keyboard-response;480;330735;0.0-3.0-1.238;false
490;ImagesTennis/TR92.5.png;190;test;,;image-keyboard-response;482;331728;0.0-3.0-1.239;false
1090;ImagesDirect/VR95.png;188;test;,;image-keyboard-response;484;333321;0.0-3.0-1.240;true
712;ImagesDirect/VR97.5.png;190;test;,;image-keyboard-response;486;334537;0.0-3.0-1.241;false
703;ImagesSoccer/VR90.png;190;test;,;image-keyboard-response;488;335744;0.0-3.0-1.242;false
522;ImagesDirect/VR105.png;190;test;.;image-keyboard-response;490;336768;0.0-3.0-1.243;true
857;ImagesDirect/VR92.5.png;188;test;,;image-keyboard-response;492;338129;0.0-3.0-1.244;true
528;ImagesTennis/TR97.5.png;190;test;,;image-keyboard-response;494;339161;0.0-3.0-1.245;false
639;ImagesTennis/TR100.png;188;test;.;image-keyboard-response;496;340304;0.0-3.0-1.246;false
465;ImagesTennis/TL92.5.png;190;test;.;image-keyboard-response;498;341272;0.0-3.0-1.247;true
439;ImagesTennis/TL95.png;190;test;.;image-keyboard-response;500;342215;0.0-3.0-1.248;true
652;ImagesTennis/TL102.5.png;190;test;,;image-keyboard-response;502;343370;0.0-3.0-1.249;false
1013;ImagesSoccer/VR110.png;190;test;.;image-keyboard-response;504;344887;0.0-3.0-1.250;true
972;ImagesDirect/VL92.5.png;188;test;.;image-keyboard-response;506;346361;0.0-3.0-1.251;false
505;ImagesTennis/TR102.5.png;188;test;.;image-keyboard-response;508;347368;0.0-3.0-1.252;false
441;ImagesSoccer/VR105.png;190;test;.;image-keyboard-response;510;348313;0.0-3.0-1.253;true
512;ImagesTennis/TL110.png;188;test;,;image-keyboard-response;512;349328;0.0-3.0-1.254;true
1066;ImagesDirect/VR100.png;190;test;.;image-keyboard-response;514;350897;0.0-3.0-1.255;true
839;ImagesSoccer/VL95.png;190;test;.;image-keyboard-response;516;352240;0.0-3.0-1.256;true
600;ImagesDirect/VL95.png;188;test;.;image-keyboard-response;518;353344;0.0-3.0-1.257;false
514;ImagesTennis/TL107.5.png;190;test;,;image-keyboard-response;520;354361;0.0-3.0-1.258;false
608;ImagesSoccer/VL107.5.png;188;test;,;image-keyboard-response;522;355473;0.0-3.0-1.259;true
519;ImagesSoccer/VR95.png;190;test;,;image-keyboard-response;524;356496;0.0-3.0-1.260;false
1082;ImagesSoccer/VL100.png;190;test;.;image-keyboard-response;526;358081;0.0-3.0-1.261;true
487;ImagesTennis/TR90.png;188;test;,;image-keyboard-response;528;359073;0.0-3.0-1.262;true
559;ImagesSoccer/VL92.5.png;190;test;.;image-keyboard-response;530;360135;0.0-3.0-1.263;true
1017;ImagesDirect/VL97.5.png;188;test;.;image-keyboard-response;532;361656;0.0-3.0-1.264;false
578;ImagesTennis/TL105.png;190;test;,;image-keyboard-response;534;362736;0.0-3.0-1.265;false
576;ImagesDirect/VR102.5.png;190;test;.;image-keyboard-response;536;363816;0.0-3.0-1.266;true
466;ImagesDirect/VL102.5.png;188;test;,;image-keyboard-response;538;364786;0.0-3.0-1.267;true
446;ImagesTennis/TL97.5.png;190;test;.;image-keyboard-response;540;365735;0.0-3.0-1.268;true
450;ImagesTennis/TL90.png;190;test;.;image-keyboard-response;542;366688;0.0-3.0-1.269;true
9330;ImagesCoins/10L100.png;188;test;.;image-keyboard-response;544;376521;0.0-4.0-1.0;false
17992;ImagesCoins/10R95.png;190;test;,;image-keyboard-response;546;395018;0.0-4.0-1.1;false
22;ImagesCoins/10L105.png;190;test;,;image-keyboard-response;548;395543;0.0-4.0-1.2;false
35;ImagesCoins/10L90.png;190;test;.;image-keyboard-response;550;396081;0.0-4.0-1.3;true
3553;ImagesCoins/10R97.5.png;188;test;,;image-keyboard-response;552;400137;0.0-4.0-1.4;true
957;ImagesCoins/10L110.png;188;test;,;image-keyboard-response;554;401600;0.0-4.0-1.5;true
555;ImagesCoins/10R110.png;190;test;.;image-keyboard-response;556;402656;0.0-4.0-1.6;true
513;ImagesCoins/10R105.png;190;test;.;image-keyboard-response;558;403673;0.0-4.0-1.7;true
656;ImagesCoins/10R90.png;188;test;,;image-keyboard-response;560;404832;0.0-4.0-1.8;true
562;ImagesCoins/10R100.png;190;test;.;image-keyboard-response;562;405897;0.0-4.0-1.9;true
544;ImagesCoins/10R102.5.png;190;test;.;image-keyboard-response;564;406945;0.0-4.0-1.10;true
1321;ImagesCoins/10L92.5.png;190;test;.;image-keyboard-response;566;408769;0.0-4.0-1.11;true
802;ImagesCoins/10R92.5.png;188;test;,;image-keyboard-response;568;410073;0.0-4.0-1.12;true
656;ImagesCoins/10L102.5.png;188;test;,;image-keyboard-response;570;411233;0.0-4.0-1.13;true
568;ImagesCoins/10L107.5.png;188;test;,;image-keyboard-response;572;412305;0.0-4.0-1.14;true
567;ImagesCoins/10R107.5.png;190;test;.;image-keyboard-response;574;413375;0.0-4.0-1.15;true
666;ImagesCoins/10L97.5.png;188;test;.;image-keyboard-response;576;414543;0.0-4.0-1.16;false
812;ImagesCoins/10L95.png;188;test;.;image-keyboard-response;578;415856;0.0-4.0-1.17;false
1092;ImagesCoins/10L95.png;190;test;.;image-keyboard-response;580;417450;0.0-4.0-1.18;true
591;ImagesCoins/10R92.5.png;188;test;,;image-keyboard-response;582;418545;0.0-4.0-1.19;true
480;ImagesCoins/10R100.png;190;test;.;image-keyboard-response;584;419528;0.0-4.0-1.20;true
497;ImagesCoins/10R102.5.png;190;test;.;image-keyboard-response;586;420529;0.0-4.0-1.21;true
425;ImagesCoins/10L110.png;188;test;,;image-keyboard-response;588;421456;0.0-4.0-1.22;true
607;ImagesCoins/10L92.5.png;190;test;.;image-keyboard-response;590;422568;0.0-4.0-1.23;true
520;ImagesCoins/10L105.png;188;test;,;image-keyboard-response;592;423592;0.0-4.0-1.24;true
478;ImagesCoins/10L107.5.png;188;test;,;image-keyboard-response;594;424576;0.0-4.0-1.25;true
561;ImagesCoins/10L97.5.png;188;test;.;image-keyboard-response;596;425641;0.0-4.0-1.26;false
433;ImagesCoins/10R105.png;190;test;.;image-keyboard-response;598;426576;0.0-4.0-1.27;true
970;ImagesCoins/10R95.png;190;test;,;image-keyboard-response;600;428050;0.0-4.0-1.28;false
846;ImagesCoins/10L90.png;190;test;.;image-keyboard-response;602;429399;0.0-4.0-1.29;true
828;ImagesCoins/10R97.5.png;188;test;,;image-keyboard-response;604;430730;0.0-4.0-1.30;true
551;ImagesCoins/10R107.5.png;190;test;.;image-keyboard-response;606;431784;0.0-4.0-1.31;true
513;ImagesCoins/10R110.png;190;test;.;image-keyboard-response;608;432800;0.0-4.0-1.32;true
488;ImagesCoins/10L102.5.png;188;test;,;image-keyboard-response;610;433792;0.0-4.0-1.33;true
520;ImagesCoins/10L100.png;188;test;.;image-keyboard-response;612;434817;0.0-4.0-1.34;false
495;ImagesCoins/10R90.png;188;test;,;image-keyboard-response;614;435817;0.0-4.0-1.35;true
598;ImagesCoins/10L100.png;188;test;.;image-keyboard-response;616;436919;0.0-4.0-1.36;false
505;ImagesCoins/10R100.png;190;test;.;image-keyboard-response;618;437927;0.0-4.0-1.37;true
629;ImagesCoins/10R92.5.png;188;test;,;image-keyboard-response;620;439058;0.0-4.0-1.38;true
502;ImagesCoins/10L105.png;188;test;,;image-keyboard-response;622;440065;0.0-4.0-1.39;true
528;ImagesCoins/10L90.png;190;test;.;image-keyboard-response;624;441096;0.0-4.0-1.40;true
744;ImagesCoins/10L95.png;190;test;.;image-keyboard-response;626;442345;0.0-4.0-1.41;true
633;ImagesCoins/10R102.5.png;190;test;.;image-keyboard-response;628;443481;0.0-4.0-1.42;true
447;ImagesCoins/10R97.5.png;190;test;,;image-keyboard-response;630;444433;0.0-4.0-1.43;false
408;ImagesCoins/10R107.5.png;190;test;.;image-keyboard-response;632;445344;0.0-4.0-1.44;true
424;ImagesCoins/10L107.5.png;188;test;,;image-keyboard-response;634;446272;0.0-4.0-1.45;true
512;ImagesCoins/10R105.png;190;test;.;image-keyboard-response;636;447288;0.0-4.0-1.46;true
512;ImagesCoins/10R95.png;190;test;,;image-keyboard-response;638;448304;0.0-4.0-1.47;false
1465;ImagesCoins/10L97.5.png;190;test;.;image-keyboard-response;640;450273;0.0-4.0-1.48;true
504;ImagesCoins/10L110.png;188;test;,;image-keyboard-response;642;451280;0.0-4.0-1.49;true
432;ImagesCoins/10R110.png;190;test;.;image-keyboard-response;644;452216;0.0-4.0-1.50;true
496;ImagesCoins/10L102.5.png;188;test;,;image-keyboard-response;646;453216;0.0-4.0-1.51;true
546;ImagesCoins/10L92.5.png;190;test;.;image-keyboard-response;648;454265;0.0-4.0-1.52;true
520;ImagesCoins/10R90.png;188;test;,;image-keyboard-response;650;455288;0.0-4.0-1.53;true
553;ImagesCoins/10L92.5.png;190;test;.;image-keyboard-response;652;456344;0.0-4.0-1.54;true
424;ImagesCoins/10L102.5.png;188;test;,;image-keyboard-response;654;457273;0.0-4.0-1.55;true
936;ImagesCoins/10R92.5.png;188;test;,;image-keyboard-response;656;458712;0.0-4.0-1.56;true
1890;ImagesCoins/10R95.png;188;test;,;image-keyboard-response;658;461106;0.0-4.0-1.57;true
1016;ImagesCoins/10L95.png;190;test;.;image-keyboard-response;660;462625;0.0-4.0-1.58;true
537;ImagesCoins/10L107.5.png;188;test;,;image-keyboard-response;662;463665;0.0-4.0-1.59;true
512;ImagesCoins/10R105.png;190;test;.;image-keyboard-response;664;464680;0.0-4.0-1.60;true
537;ImagesCoins/10R97.5.png;188;test;,;image-keyboard-response;666;465720;0.0-4.0-1.61;true
496;ImagesCoins/10L105.png;188;test;,;image-keyboard-response;668;466720;0.0-4.0-1.62;true
1130;ImagesCoins/10R100.png;190;test;.;image-keyboard-response;670;468354;0.0-4.0-1.63;true
1120;ImagesCoins/10L90.png;190;test;.;image-keyboard-response;672;469977;0.0-4.0-1.64;true
527;ImagesCoins/10L110.png;188;test;,;image-keyboard-response;674;471007;0.0-4.0-1.65;true
427;ImagesCoins/10R107.5.png;190;test;.;image-keyboard-response;676;471937;0.0-4.0-1.66;true
537;ImagesCoins/10R90.png;188;test;,;image-keyboard-response;678;472977;0.0-4.0-1.67;true
400;ImagesCoins/10R110.png;190;test;.;image-keyboard-response;680;473880;0.0-4.0-1.68;true
425;ImagesCoins/10R102.5.png;188;test;.;image-keyboard-response;682;474808;0.0-4.0-1.69;false
513;ImagesCoins/10L100.png;188;test;.;image-keyboard-response;684;475824;0.0-4.0-1.70;false
440;ImagesCoins/10L97.5.png;188;test;.;image-keyboard-response;686;476769;0.0-4.0-1.71;false
986;ImagesCoins/10L95.png;190;test;.;image-keyboard-response;688;478257;0.0-4.0-1.72;true
589;ImagesCoins/10R100.png;188;test;.;image-keyboard-response;690;479353;0.0-4.0-1.73;false
575;ImagesCoins/10R90.png;188;test;,;image-keyboard-response;692;480431;0.0-4.0-1.74;true
482;ImagesCoins/10L107.5.png;188;test;,;image-keyboard-response;694;481416;0.0-4.0-1.75;true
433;ImagesCoins/10R105.png;190;test;.;image-keyboard-response;696;482351;0.0-4.0-1.76;true
475;ImagesCoins/10L97.5.png;190;test;.;image-keyboard-response;698;483328;0.0-4.0-1.77;true
647;ImagesCoins/10R97.5.png;190;test;,;image-keyboard-response;700;484479;0.0-4.0-1.78;false
628;ImagesCoins/10L100.png;188;test;.;image-keyboard-response;702;485609;0.0-4.0-1.79;false
408;ImagesCoins/10R107.5.png;190;test;.;image-keyboard-response;704;486519;0.0-4.0-1.80;true
516;ImagesCoins/10L92.5.png;190;test;.;image-keyboard-response;706;487536;0.0-4.0-1.81;true
744;ImagesCoins/10R95.png;188;test;,;image-keyboard-response;708;488785;0.0-4.0-1.82;true
568;ImagesCoins/10L105.png;188;test;,;image-keyboard-response;710;489856;0.0-4.0-1.83;true
807;ImagesCoins/10L102.5.png;188;test;,;image-keyboard-response;712;491168;0.0-4.0-1.84;true
456;ImagesCoins/10R102.5.png;190;test;.;image-keyboard-response;714;492128;0.0-4.0-1.85;true
481;ImagesCoins/10R110.png;190;test;.;image-keyboard-response;716;493113;0.0-4.0-1.86;true
647;ImagesCoins/10R92.5.png;190;test;,;image-keyboard-response;718;494264;0.0-4.0-1.87;false
624;ImagesCoins/10L90.png;190;test;.;image-keyboard-response;720;495392;0.0-4.0-1.88;true
464;ImagesCoins/10L110.png;188;test;,;image-keyboard-response;722;496361;0.0-4.0-1.89;true
