"rt","stimulus","key_press","test_part","correct_response","trial_type","trial_index","time_elapsed","internal_node_id","correct"
"5244","ImagesDirect/VL97.5.png","188","test",".","image-keyboard-response","4","105052","0.0-3.0-1.0","false"
"4458","ImagesTennis/TL92.5.png","190","test",".","image-keyboard-response","6","110016","0.0-3.0-1.1","true"
"3605","ImagesSoccer/VL90.png","190","test",".","image-keyboard-response","8","114125","0.0-3.0-1.2","true"
"6324","ImagesSoccer/VL105.png","188","test",",","image-keyboard-response","10","120956","0.0-3.0-1.3","true"
"3487","ImagesTennis/TL90.png","190","test",".","image-keyboard-response","12","124947","0.0-3.0-1.4","true"
"1992","ImagesSoccer/VR110.png","190","test",".","image-keyboard-response","14","127443","0.0-3.0-1.5","true"
"6484","ImagesTennis/TL102.5.png","190","test",",","image-keyboard-response","16","134429","0.0-3.0-1.6","false"
"1901","ImagesDirect/VL105.png","188","test",",","image-keyboard-response","18","136834","0.0-3.0-1.7","true"
"2677","ImagesDirect/VR90.png","188","test",",","image-keyboard-response","20","140016","0.0-3.0-1.8","true"
"3894","ImagesSoccer/VL97.5.png","190","test",".","image-keyboard-response","22","144414","0.0-3.0-1.9","true"
"8193","ImagesTennis/TL105.png","188","test",",","image-keyboard-response","24","153111","0.0-3.0-1.10","true"
"1247","ImagesSoccer/VL110.png","188","test",",","image-keyboard-response","26","154862","0.0-3.0-1.11","true"
"1349","ImagesSoccer/VL107.5.png","188","test",",","image-keyboard-response","28","156715","0.0-3.0-1.12","true"
"1313","ImagesDirect/VL107.5.png","188","test",",","image-keyboard-response","30","158534","0.0-3.0-1.13","true"
"6032","ImagesSoccer/VL100.png","188","test",".","image-keyboard-response","32","165069","0.0-3.0-1.14","false"
"1501","ImagesDirect/VL102.5.png","188","test",",","image-keyboard-response","34","167075","0.0-3.0-1.15","true"
"4575","ImagesTennis/TR100.png","188","test",".","image-keyboard-response","36","172154","0.0-3.0-1.16","false"
"1174","ImagesSoccer/VR107.5.png","190","test",".","image-keyboard-response","38","173834","0.0-3.0-1.17","true"
"1607","ImagesSoccer/VL102.5.png","188","test",",","image-keyboard-response","40","175945","0.0-3.0-1.18","true"
"174791","ImagesDirect/VL92.5.png","190","test",".","image-keyboard-response","42","351241","0.0-3.0-1.19","true"
"2798","ImagesTennis/TR102.5.png","190","test",".","image-keyboard-response","44","354545","0.0-3.0-1.20","true"
"2062","ImagesDirect/VL100.png","188","test",".","image-keyboard-response","46","357111","0.0-3.0-1.21","false"
"1432","ImagesTennis/TR95.png","188","test",",","image-keyboard-response","48","359046","0.0-3.0-1.22","true"
"3103","ImagesDirect/VR92.5.png","188","test",",","image-keyboard-response","50","362653","0.0-3.0-1.23","true"
"3824","ImagesSoccer/VL92.5.png","190","test",".","image-keyboard-response","52","366982","0.0-3.0-1.24","true"
"1265","ImagesDirect/VR107.5.png","190","test",".","image-keyboard-response","54","368751","0.0-3.0-1.25","true"
"2259","ImagesDirect/VR100.png","190","test",".","image-keyboard-response","56","371514","0.0-3.0-1.26","true"
"3320","ImagesSoccer/VR92.5.png","188","test",",","image-keyboard-response","58","375339","0.0-3.0-1.27","true"
"3659","ImagesTennis/TL107.5.png","188","test",",","image-keyboard-response","60","379503","0.0-3.0-1.28","true"
"1577","ImagesDirect/VR97.5.png","190","test",",","image-keyboard-response","62","381586","0.0-3.0-1.29","false"
"2129","ImagesTennis/TL95.png","190","test",".","image-keyboard-response","64","384218","0.0-3.0-1.30","true"
"3253","ImagesSoccer/VR90.png","188","test",",","image-keyboard-response","66","387976","0.0-3.0-1.31","true"
"3138","ImagesDirect/VL95.png","190","test",".","image-keyboard-response","68","391619","0.0-3.0-1.32","true"
"2011","ImagesTennis/TR105.png","190","test",".","image-keyboard-response","70","394140","0.0-3.0-1.33","true"
"899","ImagesDirect/VR110.png","190","test",".","image-keyboard-response","72","395543","0.0-3.0-1.34","true"
"1262","ImagesTennis/TL97.5.png","190","test",".","image-keyboard-response","74","397309","0.0-3.0-1.35","true"
"2603","ImagesSoccer/VL95.png","190","test",".","image-keyboard-response","76","400416","0.0-3.0-1.36","true"
"2086","ImagesSoccer/VR102.5.png","190","test",".","image-keyboard-response","78","403005","0.0-3.0-1.37","true"
"2838","ImagesDirect/VR95.png","190","test",",","image-keyboard-response","80","406348","0.0-3.0-1.38","false"
"1393","ImagesTennis/TR110.png","190","test",".","image-keyboard-response","82","408246","0.0-3.0-1.39","true"
"1753","ImagesDirect/VL90.png","190","test",".","image-keyboard-response","84","410503","0.0-3.0-1.40","true"
"1326","ImagesTennis/TR92.5.png","188","test",",","image-keyboard-response","86","412333","0.0-3.0-1.41","true"
"1578","ImagesTennis/TR107.5.png","190","test",".","image-keyboard-response","88","414415","0.0-3.0-1.42","true"
"1160","ImagesTennis/TR90.png","188","test",",","image-keyboard-response","90","416078","0.0-3.0-1.43","true"
"1418","ImagesTennis/TL110.png","188","test",",","image-keyboard-response","92","418000","0.0-3.0-1.44","true"
"2507","ImagesSoccer/VR97.5.png","190","test",",","image-keyboard-response","94","421011","0.0-3.0-1.45","false"
"1089","ImagesDirect/VL110.png","188","test",",","image-keyboard-response","96","422603","0.0-3.0-1.46","true"
"1769","ImagesTennis/TL100.png","190","test",".","image-keyboard-response","98","424876","0.0-3.0-1.47","true"
"1067","ImagesSoccer/VR105.png","190","test",".","image-keyboard-response","100","426447","0.0-3.0-1.48","true"
"906","ImagesDirect/VR105.png","190","test",".","image-keyboard-response","102","427857","0.0-3.0-1.49","true"
"3401","ImagesSoccer/VR95.png","190","test",",","image-keyboard-response","104","431762","0.0-3.0-1.50","false"
"1437","ImagesDirect/VR102.5.png","190","test",".","image-keyboard-response","106","433704","0.0-3.0-1.51","true"
"4409","ImagesTennis/TR97.5.png","188","test",",","image-keyboard-response","108","438617","0.0-3.0-1.52","true"
"1996","ImagesSoccer/VR100.png","190","test",".","image-keyboard-response","110","441118","0.0-3.0-1.53","true"
"1198","ImagesTennis/TR105.png","190","test",".","image-keyboard-response","112","442821","0.0-3.0-1.54","true"
"914","ImagesDirect/VR110.png","190","test",".","image-keyboard-response","114","444241","0.0-3.0-1.55","true"
"3190","ImagesTennis/TL107.5.png","188","test",",","image-keyboard-response","116","447934","0.0-3.0-1.56","true"
"1000","ImagesTennis/TL100.png","190","test",".","image-keyboard-response","118","449439","0.0-3.0-1.57","true"
"1128","ImagesTennis/TR92.5.png","188","test",",","image-keyboard-response","120","451071","0.0-3.0-1.58","true"
"3704","ImagesDirect/VL97.5.png","190","test",".","image-keyboard-response","122","455280","0.0-3.0-1.59","true"
"4067","ImagesDirect/VR92.5.png","188","test",",","image-keyboard-response","124","459853","0.0-3.0-1.60","true"
"1079","ImagesDirect/VR105.png","190","test",".","image-keyboard-response","126","461438","0.0-3.0-1.61","true"
"1059","ImagesSoccer/VL92.5.png","190","test",".","image-keyboard-response","128","463002","0.0-3.0-1.62","true"
"2754","ImagesTennis/TR97.5.png","190","test",",","image-keyboard-response","130","466260","0.0-3.0-1.63","false"
"1613","ImagesSoccer/VR100.png","190","test",".","image-keyboard-response","132","468379","0.0-3.0-1.64","true"
"1474","ImagesTennis/TR90.png","188","test",",","image-keyboard-response","134","470357","0.0-3.0-1.65","true"
"4944","ImagesTennis/TR102.5.png","190","test",".","image-keyboard-response","136","475805","0.0-3.0-1.66","true"
"1558","ImagesSoccer/VR92.5.png","188","test",",","image-keyboard-response","138","477869","0.0-3.0-1.67","true"
"1198","ImagesSoccer/VL105.png","188","test",",","image-keyboard-response","140","479573","0.0-3.0-1.68","true"
"1261","ImagesDirect/VL107.5.png","188","test",",","image-keyboard-response","142","481337","0.0-3.0-1.69","true"
"1541","ImagesTennis/TR107.5.png","190","test",".","image-keyboard-response","144","483383","0.0-3.0-1.70","true"
"1648","ImagesDirect/VR90.png","188","test",",","image-keyboard-response","146","485535","0.0-3.0-1.71","true"
"4748","ImagesSoccer/VL95.png","190","test",".","image-keyboard-response","148","490788","0.0-3.0-1.72","true"
"3557","ImagesDirect/VL90.png","190","test",".","image-keyboard-response","150","494851","0.0-3.0-1.73","true"
"3987","ImagesSoccer/VR95.png","188","test",",","image-keyboard-response","152","499343","0.0-3.0-1.74","true"
"1652","ImagesTennis/TL110.png","188","test",",","image-keyboard-response","154","501503","0.0-3.0-1.75","true"
"2712","ImagesTennis/TR110.png","190","test",".","image-keyboard-response","156","504720","0.0-3.0-1.76","true"
"5201","ImagesTennis/TR100.png","190","test",".","image-keyboard-response","158","510425","0.0-3.0-1.77","true"
"4418","ImagesTennis/TL102.5.png","188","test",",","image-keyboard-response","160","515348","0.0-3.0-1.78","true"
"2466","ImagesDirect/VL92.5.png","190","test",".","image-keyboard-response","162","518319","0.0-3.0-1.79","true"
"1979","ImagesTennis/TL95.png","190","test",".","image-keyboard-response","164","520802","0.0-3.0-1.80","true"
"1160","ImagesDirect/VR107.5.png","190","test",".","image-keyboard-response","166","522466","0.0-3.0-1.81","true"
"1260","ImagesDirect/VL102.5.png","188","test",",","image-keyboard-response","168","524230","0.0-3.0-1.82","true"
"6079","ImagesSoccer/VL97.5.png","190","test",".","image-keyboard-response","170","530814","0.0-3.0-1.83","true"
"1371","ImagesDirect/VL105.png","188","test",",","image-keyboard-response","172","532691","0.0-3.0-1.84","true"
"1642","ImagesTennis/TL90.png","190","test",".","image-keyboard-response","174","534838","0.0-3.0-1.85","true"
"1639","ImagesDirect/VR100.png","190","test",".","image-keyboard-response","176","536982","0.0-3.0-1.86","true"
"1731","ImagesDirect/VR102.5.png","190","test",".","image-keyboard-response","178","539217","0.0-3.0-1.87","true"
"8730","ImagesTennis/TL105.png","188","test",",","image-keyboard-response","180","548452","0.0-3.0-1.88","true"
"2273","ImagesSoccer/VL107.5.png","188","test",",","image-keyboard-response","182","551230","0.0-3.0-1.89","true"
"1602","ImagesSoccer/VL110.png","188","test",",","image-keyboard-response","184","553336","0.0-3.0-1.90","true"
"1068","ImagesDirect/VR97.5.png","190","test",",","image-keyboard-response","186","554908","0.0-3.0-1.91","false"
"1115","ImagesDirect/VL110.png","188","test",",","image-keyboard-response","188","556526","0.0-3.0-1.92","true"
"2152","ImagesSoccer/VR102.5.png","190","test",".","image-keyboard-response","190","559183","0.0-3.0-1.93","true"
"893","ImagesSoccer/VR110.png","190","test",".","image-keyboard-response","192","560581","0.0-3.0-1.94","true"
"878","ImagesTennis/TL92.5.png","190","test",".","image-keyboard-response","194","561963","0.0-3.0-1.95","true"
"2755","ImagesSoccer/VL100.png","188","test",".","image-keyboard-response","196","565222","0.0-3.0-1.96","false"
"1250","ImagesDirect/VL95.png","188","test",".","image-keyboard-response","198","566977","0.0-3.0-1.97","false"
"1723","ImagesTennis/TR95.png","188","test",",","image-keyboard-response","200","569203","0.0-3.0-1.98","true"
"1645","ImagesDirect/VR95.png","190","test",",","image-keyboard-response","202","571353","0.0-3.0-1.99","false"
"4782","ImagesSoccer/VR97.5.png","190","test",",","image-keyboard-response","204","576640","0.0-3.0-1.100","false"
"5751","ImagesSoccer/VL102.5.png","188","test",",","image-keyboard-response","206","582896","0.0-3.0-1.101","true"
"2835","ImagesDirect/VL100.png","188","test",".","image-keyboard-response","208","586236","0.0-3.0-1.102","false"
"2053","ImagesSoccer/VR90.png","188","test",",","image-keyboard-response","210","588794","0.0-3.0-1.103","true"
"1072","ImagesSoccer/VR105.png","190","test",".","image-keyboard-response","212","590369","0.0-3.0-1.104","true"
"776","ImagesSoccer/VR107.5.png","190","test",".","image-keyboard-response","214","591651","0.0-3.0-1.105","true"
"1003","ImagesSoccer/VL90.png","190","test",".","image-keyboard-response","216","593159","0.0-3.0-1.106","true"
"2931","ImagesTennis/TL97.5.png","190","test",".","image-keyboard-response","218","596594","0.0-3.0-1.107","true"
"1766","ImagesSoccer/VL90.png","190","test",".","image-keyboard-response","220","598864","0.0-3.0-1.108","true"
"1226","ImagesDirect/VL107.5.png","188","test",",","image-keyboard-response","222","600595","0.0-3.0-1.109","true"
"1884","ImagesDirect/VR107.5.png","190","test",".","image-keyboard-response","224","602983","0.0-3.0-1.110","true"
"1280","ImagesSoccer/VR90.png","188","test",",","image-keyboard-response","226","604768","0.0-3.0-1.111","true"
"1308","ImagesDirect/VL102.5.png","188","test",",","image-keyboard-response","228","606579","0.0-3.0-1.112","true"
"2610","ImagesSoccer/VR97.5.png","190","test",",","image-keyboard-response","230","609693","0.0-3.0-1.113","false"
"1360","ImagesSoccer/VL107.5.png","188","test",",","image-keyboard-response","232","611558","0.0-3.0-1.114","true"
"1293","ImagesDirect/VR92.5.png","188","test",",","image-keyboard-response","234","613355","0.0-3.0-1.115","true"
"2200","ImagesTennis/TR102.5.png","190","test",".","image-keyboard-response","236","616061","0.0-3.0-1.116","true"
"1213","ImagesTennis/TR92.5.png","188","test",",","image-keyboard-response","238","617779","0.0-3.0-1.117","true"
"2615","ImagesSoccer/VR95.png","188","test",",","image-keyboard-response","240","620897","0.0-3.0-1.118","true"
"2409","ImagesSoccer/VL105.png","188","test",",","image-keyboard-response","242","623810","0.0-3.0-1.119","true"
"1675","ImagesSoccer/VR92.5.png","188","test",",","image-keyboard-response","244","625990","0.0-3.0-1.120","true"
"1614","ImagesSoccer/VR110.png","190","test",".","image-keyboard-response","246","628109","0.0-3.0-1.121","true"
"2745","ImagesDirect/VR97.5.png","190","test",",","image-keyboard-response","248","631360","0.0-3.0-1.122","false"
"1313","ImagesDirect/VL97.5.png","188","test",".","image-keyboard-response","250","633177","0.0-3.0-1.123","false"
"2199","ImagesSoccer/VL100.png","188","test",".","image-keyboard-response","252","635881","0.0-3.0-1.124","false"
"1961","ImagesDirect/VR90.png","188","test",",","image-keyboard-response","254","638346","0.0-3.0-1.125","true"
"1231","ImagesDirect/VL110.png","188","test",",","image-keyboard-response","256","640081","0.0-3.0-1.126","true"
"4852","ImagesTennis/TL102.5.png","188","test",",","image-keyboard-response","258","645438","0.0-3.0-1.127","true"
"1243","ImagesTennis/TR95.png","188","test",",","image-keyboard-response","260","647186","0.0-3.0-1.128","true"
"1375","ImagesTennis/TR110.png","190","test",".","image-keyboard-response","262","649065","0.0-3.0-1.129","true"
"986","ImagesDirect/VR102.5.png","190","test",".","image-keyboard-response","264","650555","0.0-3.0-1.130","true"
"2475","ImagesDirect/VL90.png","190","test",".","image-keyboard-response","266","653535","0.0-3.0-1.131","true"
"1068","ImagesTennis/TR90.png","188","test",",","image-keyboard-response","268","655108","0.0-3.0-1.132","true"
"2085","ImagesTennis/TR100.png","188","test",".","image-keyboard-response","270","657698","0.0-3.0-1.133","false"
"1264","ImagesTennis/TL90.png","190","test",".","image-keyboard-response","272","659468","0.0-3.0-1.134","true"
"5995","ImagesSoccer/VL97.5.png","188","test",".","image-keyboard-response","274","665966","0.0-3.0-1.135","false"
"3969","ImagesSoccer/VL95.png","190","test",".","image-keyboard-response","276","670441","0.0-3.0-1.136","true"
"1719","ImagesTennis/TL107.5.png","188","test",",","image-keyboard-response","278","672663","0.0-3.0-1.137","true"
"1137","ImagesSoccer/VR100.png","190","test",".","image-keyboard-response","280","674304","0.0-3.0-1.138","true"
"950","ImagesDirect/VR105.png","190","test",".","image-keyboard-response","282","675759","0.0-3.0-1.139","true"
"1091","ImagesSoccer/VL110.png","188","test",",","image-keyboard-response","284","677354","0.0-3.0-1.140","true"
"1146","ImagesDirect/VL92.5.png","190","test",".","image-keyboard-response","286","679004","0.0-3.0-1.141","true"
"991","ImagesSoccer/VR107.5.png","190","test",".","image-keyboard-response","288","680501","0.0-3.0-1.142","true"
"3756","ImagesTennis/TL100.png","188","test",".","image-keyboard-response","290","684762","0.0-3.0-1.143","false"
"19142","ImagesTennis/TL105.png","188","test",",","image-keyboard-response","292","704409","0.0-3.0-1.144","true"
"1737","ImagesSoccer/VL102.5.png","188","test",",","image-keyboard-response","294","706651","0.0-3.0-1.145","true"
"1568","ImagesDirect/VR100.png","190","test",".","image-keyboard-response","296","708723","0.0-3.0-1.146","true"
"1107","ImagesDirect/VL100.png","188","test",".","image-keyboard-response","298","710334","0.0-3.0-1.147","false"
"1037","ImagesDirect/VL105.png","188","test",",","image-keyboard-response","300","711876","0.0-3.0-1.148","true"
"1310","ImagesTennis/TL97.5.png","190","test",".","image-keyboard-response","302","713691","0.0-3.0-1.149","true"
"1197","ImagesSoccer/VL92.5.png","190","test",".","image-keyboard-response","304","715392","0.0-3.0-1.150","true"
"2580","ImagesSoccer/VR102.5.png","190","test",".","image-keyboard-response","306","718477","0.0-3.0-1.151","true"
"1251","ImagesTennis/TL110.png","188","test",",","image-keyboard-response","308","720234","0.0-3.0-1.152","true"
"1686","ImagesSoccer/VR105.png","190","test",".","image-keyboard-response","310","722426","0.0-3.0-1.153","true"
"1730","ImagesTennis/TL92.5.png","190","test",".","image-keyboard-response","312","724660","0.0-3.0-1.154","true"
"2651","ImagesTennis/TR107.5.png","190","test",".","image-keyboard-response","314","727815","0.0-3.0-1.155","true"
"4162","ImagesDirect/VR95.png","188","test",",","image-keyboard-response","316","732482","0.0-3.0-1.156","true"
"1304","ImagesTennis/TL95.png","190","test",".","image-keyboard-response","318","734293","0.0-3.0-1.157","true"
"2239","ImagesDirect/VL95.png","188","test",".","image-keyboard-response","320","737036","0.0-3.0-1.158","false"
"1187","ImagesDirect/VR110.png","190","test",".","image-keyboard-response","322","738729","0.0-3.0-1.159","true"
"2406","ImagesTennis/TR105.png","190","test",".","image-keyboard-response","324","741639","0.0-3.0-1.160","true"
"1312","ImagesTennis/TR97.5.png","188","test",",","image-keyboard-response","326","743455","0.0-3.0-1.161","true"
"1155","ImagesTennis/TR97.5.png","188","test",",","image-keyboard-response","328","745115","0.0-3.0-1.162","true"
"1530","ImagesSoccer/VL100.png","188","test",".","image-keyboard-response","330","747150","0.0-3.0-1.163","false"
"1244","ImagesTennis/TL102.5.png","190","test",",","image-keyboard-response","332","748898","0.0-3.0-1.164","false"
"3232","ImagesSoccer/VR100.png","190","test",".","image-keyboard-response","334","752633","0.0-3.0-1.165","true"
"957","ImagesSoccer/VR110.png","190","test",".","image-keyboard-response","336","754096","0.0-3.0-1.166","true"
"1675","ImagesTennis/TL105.png","190","test",",","image-keyboard-response","338","756275","0.0-3.0-1.167","false"
"956","ImagesDirect/VR102.5.png","190","test",".","image-keyboard-response","340","757735","0.0-3.0-1.168","true"
"958","ImagesDirect/VR107.5.png","190","test",".","image-keyboard-response","342","759198","0.0-3.0-1.169","true"
"1649","ImagesSoccer/VL102.5.png","188","test",",","image-keyboard-response","344","761351","0.0-3.0-1.170","true"
"1377","ImagesTennis/TR95.png","188","test",",","image-keyboard-response","346","763232","0.0-3.0-1.171","true"
"1176","ImagesDirect/VL100.png","188","test",".","image-keyboard-response","348","764912","0.0-3.0-1.172","false"
"1306","ImagesTennis/TR105.png","190","test",".","image-keyboard-response","350","766722","0.0-3.0-1.173","true"
"1198","ImagesSoccer/VL110.png","188","test",",","image-keyboard-response","352","768425","0.0-3.0-1.174","true"
"1293","ImagesSoccer/VR92.5.png","188","test",",","image-keyboard-response","354","770221","0.0-3.0-1.175","true"
"1384","ImagesTennis/TR90.png","188","test",",","image-keyboard-response","356","772110","0.0-3.0-1.176","true"
"2667","ImagesDirect/VR97.5.png","188","test",",","image-keyboard-response","358","775282","0.0-3.0-1.177","true"
"1458","ImagesTennis/TR107.5.png","190","test",".","image-keyboard-response","360","777246","0.0-3.0-1.178","true"
"978","ImagesSoccer/VR105.png","190","test",".","image-keyboard-response","362","778728","0.0-3.0-1.179","true"
"1502","ImagesSoccer/VL107.5.png","188","test",",","image-keyboard-response","364","780736","0.0-3.0-1.180","true"
"1578","ImagesSoccer/VR97.5.png","190","test",",","image-keyboard-response","366","782817","0.0-3.0-1.181","false"
"966","ImagesTennis/TL95.png","190","test",".","image-keyboard-response","368","784288","0.0-3.0-1.182","true"
"929","ImagesSoccer/VR107.5.png","190","test",".","image-keyboard-response","370","785721","0.0-3.0-1.183","true"
"1056","ImagesTennis/TL100.png","190","test",".","image-keyboard-response","372","787282","0.0-3.0-1.184","true"
"5238","ImagesDirect/VL95.png","190","test",".","image-keyboard-response","374","793023","0.0-3.0-1.185","true"
"1138","ImagesSoccer/VR90.png","188","test",",","image-keyboard-response","376","794667","0.0-3.0-1.186","true"
"1190","ImagesDirect/VL110.png","188","test",",","image-keyboard-response","378","796361","0.0-3.0-1.187","true"
"1525","ImagesSoccer/VR102.5.png","190","test",".","image-keyboard-response","380","798391","0.0-3.0-1.188","true"
"1061","ImagesDirect/VR105.png","190","test",".","image-keyboard-response","382","799956","0.0-3.0-1.189","true"
"1531","ImagesTennis/TL110.png","188","test",",","image-keyboard-response","384","801992","0.0-3.0-1.190","true"
"1149","ImagesDirect/VR100.png","190","test",".","image-keyboard-response","386","803646","0.0-3.0-1.191","true"
"1573","ImagesDirect/VL97.5.png","188","test",".","image-keyboard-response","388","805723","0.0-3.0-1.192","false"
"983","ImagesDirect/VR110.png","190","test",".","image-keyboard-response","390","807212","0.0-3.0-1.193","true"
"1917","ImagesTennis/TL97.5.png","190","test",".","image-keyboard-response","392","809634","0.0-3.0-1.194","true"
"1262","ImagesSoccer/VL97.5.png","190","test",".","image-keyboard-response","394","811399","0.0-3.0-1.195","true"
"1062","ImagesDirect/VL107.5.png","188","test",",","image-keyboard-response","396","812963","0.0-3.0-1.196","true"
"1239","ImagesSoccer/VL105.png","188","test",",","image-keyboard-response","398","814706","0.0-3.0-1.197","true"
"1597","ImagesDirect/VL92.5.png","190","test",".","image-keyboard-response","400","816806","0.0-3.0-1.198","true"
"1280","ImagesDirect/VL102.5.png","188","test",",","image-keyboard-response","402","818590","0.0-3.0-1.199","true"
"1110","ImagesTennis/TR92.5.png","188","test",",","image-keyboard-response","404","820205","0.0-3.0-1.200","true"
"1326","ImagesTennis/TL90.png","190","test",".","image-keyboard-response","406","822035","0.0-3.0-1.201","true"
"2158","ImagesDirect/VR92.5.png","188","test",",","image-keyboard-response","408","824698","0.0-3.0-1.202","true"
"1063","ImagesDirect/VR95.png","190","test",",","image-keyboard-response","410","826265","0.0-3.0-1.203","false"
"1454","ImagesDirect/VR90.png","188","test",",","image-keyboard-response","412","828223","0.0-3.0-1.204","true"
"1285","ImagesSoccer/VL90.png","190","test",".","image-keyboard-response","414","830014","0.0-3.0-1.205","true"
"3888","ImagesTennis/TR102.5.png","188","test",".","image-keyboard-response","416","834406","0.0-3.0-1.206","false"
"1061","ImagesTennis/TL92.5.png","190","test",".","image-keyboard-response","418","835971","0.0-3.0-1.207","true"
"1330","ImagesDirect/VL105.png","188","test",",","image-keyboard-response","420","837805","0.0-3.0-1.208","true"
"1225","ImagesSoccer/VL92.5.png","190","test",".","image-keyboard-response","422","839534","0.0-3.0-1.209","true"
"986","ImagesDirect/VL90.png","190","test",".","image-keyboard-response","424","841023","0.0-3.0-1.210","true"
"1114","ImagesTennis/TR110.png","190","test",".","image-keyboard-response","426","842641","0.0-3.0-1.211","true"
"2133","ImagesTennis/TL107.5.png","188","test",",","image-keyboard-response","428","845279","0.0-3.0-1.212","true"
"1197","ImagesSoccer/VL95.png","190","test",".","image-keyboard-response","430","846982","0.0-3.0-1.213","true"
"1409","ImagesSoccer/VR95.png","188","test",",","image-keyboard-response","432","848895","0.0-3.0-1.214","true"
"1215","ImagesTennis/TR100.png","188","test",".","image-keyboard-response","434","850613","0.0-3.0-1.215","false"
"1256","ImagesDirect/VL100.png","188","test",".","image-keyboard-response","436","852374","0.0-3.0-1.216","false"
"1258","ImagesSoccer/VL107.5.png","188","test",",","image-keyboard-response","438","854135","0.0-3.0-1.217","true"
"1275","ImagesSoccer/VL100.png","188","test",".","image-keyboard-response","440","855914","0.0-3.0-1.218","false"
"1210","ImagesDirect/VR107.5.png","190","test",".","image-keyboard-response","442","857627","0.0-3.0-1.219","true"
"1118","ImagesTennis/TR105.png","190","test",".","image-keyboard-response","444","859249","0.0-3.0-1.220","true"
"1002","ImagesDirect/VR102.5.png","190","test",".","image-keyboard-response","446","860758","0.0-3.0-1.221","true"
"1153","ImagesDirect/VL90.png","190","test",".","image-keyboard-response","448","862415","0.0-3.0-1.222","true"
"4520","ImagesSoccer/VR95.png","190","test",",","image-keyboard-response","450","867438","0.0-3.0-1.223","false"
"1083","ImagesSoccer/VL92.5.png","190","test",".","image-keyboard-response","452","869025","0.0-3.0-1.224","true"
"1124","ImagesTennis/TR90.png","188","test",",","image-keyboard-response","454","870652","0.0-3.0-1.225","true"
"876","ImagesDirect/VR110.png","190","test",".","image-keyboard-response","456","872034","0.0-3.0-1.226","true"
"1273","ImagesTennis/TL105.png","188","test",",","image-keyboard-response","458","873811","0.0-3.0-1.227","true"
"2356","ImagesSoccer/VL97.5.png","188","test",".","image-keyboard-response","460","876672","0.0-3.0-1.228","false"
"1727","ImagesTennis/TR97.5.png","188","test",",","image-keyboard-response","462","878903","0.0-3.0-1.229","true"
"2319","ImagesTennis/TR110.png","190","test",".","image-keyboard-response","464","881727","0.0-3.0-1.230","true"
"1272","ImagesDirect/VR90.png","188","test",",","image-keyboard-response","466","883504","0.0-3.0-1.231","true"
"1105","ImagesDirect/VL107.5.png","188","test",",","image-keyboard-response","468","885113","0.0-3.0-1.232","true"
"1646","ImagesSoccer/VR102.5.png","190","test",".","image-keyboard-response","470","887263","0.0-3.0-1.233","true"
"1350","ImagesTennis/TL107.5.png","188","test",",","image-keyboard-response","472","889118","0.0-3.0-1.234","true"
"1535","ImagesDirect/VR97.5.png","190","test",",","image-keyboard-response","474","891158","0.0-3.0-1.235","false"
"1290","ImagesSoccer/VL90.png","190","test",".","image-keyboard-response","476","892953","0.0-3.0-1.236","true"
"1017","ImagesDirect/VL105.png","188","test",",","image-keyboard-response","478","894474","0.0-3.0-1.237","true"
"1121","ImagesSoccer/VR92.5.png","188","test",",","image-keyboard-response","480","896100","0.0-3.0-1.238","true"
"1223","ImagesTennis/TL95.png","190","test",".","image-keyboard-response","482","897828","0.0-3.0-1.239","true"
"1016","ImagesTennis/TR107.5.png","190","test",".","image-keyboard-response","484","899350","0.0-3.0-1.240","true"
"2715","ImagesSoccer/VR100.png","190","test",".","image-keyboard-response","486","902568","0.0-3.0-1.241","true"
"1168","ImagesTennis/TR95.png","188","test",",","image-keyboard-response","488","904242","0.0-3.0-1.242","true"
"971","ImagesTennis/TL90.png","190","test",".","image-keyboard-response","490","905717","0.0-3.0-1.243","true"
"3521","ImagesTennis/TR100.png","188","test",".","image-keyboard-response","492","909742","0.0-3.0-1.244","false"
"1073","ImagesTennis/TL100.png","190","test",".","image-keyboard-response","494","911321","0.0-3.0-1.245","true"
"1566","ImagesDirect/VR95.png","188","test",",","image-keyboard-response","496","913391","0.0-3.0-1.246","true"
"1550","ImagesTennis/TL97.5.png","190","test",".","image-keyboard-response","498","915446","0.0-3.0-1.247","true"
"1614","ImagesSoccer/VL95.png","190","test",".","image-keyboard-response","500","917562","0.0-3.0-1.248","true"
"2105","ImagesSoccer/VR90.png","188","test",",","image-keyboard-response","502","920172","0.0-3.0-1.249","true"
"4714","ImagesTennis/TL102.5.png","188","test",",","image-keyboard-response","504","925390","0.0-3.0-1.250","true"
"1095","ImagesSoccer/VR105.png","190","test",".","image-keyboard-response","506","926990","0.0-3.0-1.251","true"
"1559","ImagesDirect/VL95.png","190","test",".","image-keyboard-response","508","929053","0.0-3.0-1.252","true"
"964","ImagesDirect/VL97.5.png","188","test",".","image-keyboard-response","510","930522","0.0-3.0-1.253","false"
"8056","ImagesSoccer/VR97.5.png","190","test",",","image-keyboard-response","512","939083","0.0-3.0-1.254","false"
"1209","ImagesTennis/TL92.5.png","190","test",".","image-keyboard-response","514","940798","0.0-3.0-1.255","true"
"1782","ImagesSoccer/VL102.5.png","188","test",",","image-keyboard-response","516","943084","0.0-3.0-1.256","true"
"1555","ImagesSoccer/VR110.png","190","test",".","image-keyboard-response","518","945143","0.0-3.0-1.257","true"
"1000","ImagesDirect/VL102.5.png","188","test",",","image-keyboard-response","520","946648","0.0-3.0-1.258","true"
"954","ImagesDirect/VR105.png","190","test",".","image-keyboard-response","522","948106","0.0-3.0-1.259","true"
"1228","ImagesTennis/TL110.png","188","test",",","image-keyboard-response","524","949839","0.0-3.0-1.260","true"
"1781","ImagesDirect/VL92.5.png","190","test",".","image-keyboard-response","526","952126","0.0-3.0-1.261","true"
"1129","ImagesDirect/VL110.png","188","test",",","image-keyboard-response","528","953760","0.0-3.0-1.262","true"
"1298","ImagesSoccer/VL105.png","188","test",",","image-keyboard-response","530","955567","0.0-3.0-1.263","true"
"1079","ImagesSoccer/VL110.png","188","test",",","image-keyboard-response","532","957150","0.0-3.0-1.264","true"
"907","ImagesDirect/VR100.png","190","test",".","image-keyboard-response","534","958561","0.0-3.0-1.265","true"
"1031","ImagesTennis/TR92.5.png","188","test",",","image-keyboard-response","536","960095","0.0-3.0-1.266","true"
"928","ImagesSoccer/VR107.5.png","190","test",".","image-keyboard-response","538","961527","0.0-3.0-1.267","true"
"1842","ImagesDirect/VR92.5.png","188","test",",","image-keyboard-response","540","963872","0.0-3.0-1.268","true"
"1230","ImagesTennis/TR102.5.png","188","test",".","image-keyboard-response","542","965606","0.0-3.0-1.269","false"
"3374","ImagesCoins/10R97.5.png","190","test",",","image-keyboard-response","544","969484","0.0-4.0-1.0","false"
"1639","ImagesCoins/10L95.png","190","test",".","image-keyboard-response","546","971628","0.0-4.0-1.1","true"
"1318","ImagesCoins/10L105.png","188","test",",","image-keyboard-response","548","973451","0.0-4.0-1.2","true"
"1283","ImagesCoins/10L110.png","188","test",",","image-keyboard-response","550","975238","0.0-4.0-1.3","true"
"1378","ImagesCoins/10R100.png","190","test",".","image-keyboard-response","552","977121","0.0-4.0-1.4","true"
"1411","ImagesCoins/10R90.png","188","test",",","image-keyboard-response","554","979035","0.0-4.0-1.5","true"
"1129","ImagesCoins/10R107.5.png","190","test",".","image-keyboard-response","556","980668","0.0-4.0-1.6","true"
"1026","ImagesCoins/10R102.5.png","190","test",".","image-keyboard-response","558","982198","0.0-4.0-1.7","true"
"1538","ImagesCoins/10R92.5.png","188","test",",","image-keyboard-response","560","984240","0.0-4.0-1.8","true"
"3257","ImagesCoins/10L97.5.png","190","test",".","image-keyboard-response","562","988001","0.0-4.0-1.9","true"
"1922","ImagesCoins/10L102.5.png","188","test",",","image-keyboard-response","564","990428","0.0-4.0-1.10","true"
"1330","ImagesCoins/10R95.png","188","test",",","image-keyboard-response","566","992263","0.0-4.0-1.11","true"
"1315","ImagesCoins/10L107.5.png","188","test",",","image-keyboard-response","568","994083","0.0-4.0-1.12","true"
"1215","ImagesCoins/10R110.png","190","test",".","image-keyboard-response","570","995802","0.0-4.0-1.13","true"
"1286","ImagesCoins/10L92.5.png","190","test",".","image-keyboard-response","572","997593","0.0-4.0-1.14","true"
"1237","ImagesCoins/10R105.png","190","test",".","image-keyboard-response","574","999335","0.0-4.0-1.15","true"
"1205","ImagesCoins/10L100.png","190","test",".","image-keyboard-response","576","1001044","0.0-4.0-1.16","true"
"1134","ImagesCoins/10L90.png","190","test",".","image-keyboard-response","578","1002684","0.0-4.0-1.17","true"
"1086","ImagesCoins/10R100.png","190","test",".","image-keyboard-response","580","1004276","0.0-4.0-1.18","true"
"1091","ImagesCoins/10L97.5.png","188","test",".","image-keyboard-response","582","1005871","0.0-4.0-1.19","false"
"1186","ImagesCoins/10L92.5.png","190","test",".","image-keyboard-response","584","1007562","0.0-4.0-1.20","true"
"843","ImagesCoins/10R110.png","190","test",".","image-keyboard-response","586","1008909","0.0-4.0-1.21","true"
"875","ImagesCoins/10R95.png","190","test",",","image-keyboard-response","588","1010288","0.0-4.0-1.22","false"
"868","ImagesCoins/10L100.png","190","test",".","image-keyboard-response","590","1011660","0.0-4.0-1.23","true"
"1224","ImagesCoins/10R105.png","190","test",".","image-keyboard-response","592","1013389","0.0-4.0-1.24","true"
"1031","ImagesCoins/10L110.png","188","test",",","image-keyboard-response","594","1014923","0.0-4.0-1.25","true"
"4136","ImagesCoins/10R97.5.png","190","test",",","image-keyboard-response","596","1019562","0.0-4.0-1.26","false"
"1043","ImagesCoins/10L107.5.png","188","test",",","image-keyboard-response","598","1021111","0.0-4.0-1.27","true"
"905","ImagesCoins/10L90.png","190","test",".","image-keyboard-response","600","1022519","0.0-4.0-1.28","true"
"839","ImagesCoins/10R107.5.png","190","test",".","image-keyboard-response","602","1023863","0.0-4.0-1.29","true"
"910","ImagesCoins/10L105.png","188","test",",","image-keyboard-response","604","1025278","0.0-4.0-1.30","true"
"985","ImagesCoins/10R92.5.png","190","test",",","image-keyboard-response","606","1026767","0.0-4.0-1.31","false"
"943","ImagesCoins/10R102.5.png","190","test",".","image-keyboard-response","608","1028215","0.0-4.0-1.32","true"
"895","ImagesCoins/10R90.png","190","test",",","image-keyboard-response","610","1029615","0.0-4.0-1.33","false"
"1374","ImagesCoins/10L95.png","190","test",".","image-keyboard-response","612","1031493","0.0-4.0-1.34","true"
"1177","ImagesCoins/10L102.5.png","188","test",",","image-keyboard-response","614","1033177","0.0-4.0-1.35","true"
"1024","ImagesCoins/10R95.png","190","test",",","image-keyboard-response","616","1034706","0.0-4.0-1.36","false"
"895","ImagesCoins/10L90.png","190","test",".","image-keyboard-response","618","1036106","0.0-4.0-1.37","true"
"1857","ImagesCoins/10R105.png","190","test",".","image-keyboard-response","620","1038471","0.0-4.0-1.38","true"
"872","ImagesCoins/10R97.5.png","190","test",",","image-keyboard-response","622","1039847","0.0-4.0-1.39","false"
"2620","ImagesCoins/10R90.png","188","test",",","image-keyboard-response","624","1042972","0.0-4.0-1.40","true"
"1100","ImagesCoins/10L100.png","190","test",".","image-keyboard-response","626","1044579","0.0-4.0-1.41","true"
"946","ImagesCoins/10L107.5.png","188","test",",","image-keyboard-response","628","1046029","0.0-4.0-1.42","true"
"730","ImagesCoins/10R107.5.png","190","test",".","image-keyboard-response","630","1047264","0.0-4.0-1.43","true"
"1011","ImagesCoins/10L97.5.png","190","test",".","image-keyboard-response","632","1048779","0.0-4.0-1.44","true"
"829","ImagesCoins/10L110.png","188","test",",","image-keyboard-response","634","1050112","0.0-4.0-1.45","true"
"2278","ImagesCoins/10L102.5.png","188","test",",","image-keyboard-response","636","1052894","0.0-4.0-1.46","true"
"1179","ImagesCoins/10L105.png","188","test",",","image-keyboard-response","638","1054578","0.0-4.0-1.47","true"
"1193","ImagesCoins/10L92.5.png","190","test",".","image-keyboard-response","640","1056276","0.0-4.0-1.48","true"
"1118","ImagesCoins/10R102.5.png","190","test",".","image-keyboard-response","642","1057897","0.0-4.0-1.49","true"
"1172","ImagesCoins/10R110.png","190","test",".","image-keyboard-response","644","1059573","0.0-4.0-1.50","true"
"1865","ImagesCoins/10R92.5.png","188","test",",","image-keyboard-response","646","1061941","0.0-4.0-1.51","true"
"898","ImagesCoins/10L95.png","190","test",".","image-keyboard-response","648","1063343","0.0-4.0-1.52","true"
"1663","ImagesCoins/10R100.png","190","test",".","image-keyboard-response","650","1065509","0.0-4.0-1.53","true"
"1451","ImagesCoins/10R90.png","188","test",",","image-keyboard-response","652","1067465","0.0-4.0-1.54","true"
"918","ImagesCoins/10L92.5.png","190","test",".","image-keyboard-response","654","1068888","0.0-4.0-1.55","true"
"911","ImagesCoins/10L100.png","188","test",".","image-keyboard-response","656","1070305","0.0-4.0-1.56","false"
"733","ImagesCoins/10R110.png","190","test",".","image-keyboard-response","658","1071543","0.0-4.0-1.57","true"
"787","ImagesCoins/10R102.5.png","190","test",".","image-keyboard-response","660","1072835","0.0-4.0-1.58","true"
"929","ImagesCoins/10L97.5.png","190","test",".","image-keyboard-response","662","1074268","0.0-4.0-1.59","true"
"1089","ImagesCoins/10L90.png","190","test",".","image-keyboard-response","664","1075862","0.0-4.0-1.60","true"
"1079","ImagesCoins/10R95.png","188","test",",","image-keyboard-response","666","1077445","0.0-4.0-1.61","true"
"838","ImagesCoins/10R105.png","190","test",".","image-keyboard-response","668","1078786","0.0-4.0-1.62","true"
"1362","ImagesCoins/10L110.png","188","test",",","image-keyboard-response","670","1080653","0.0-4.0-1.63","true"
"4680","ImagesCoins/10R92.5.png","190","test",",","image-keyboard-response","672","1085839","0.0-4.0-1.64","false"
"803","ImagesCoins/10R100.png","190","test",".","image-keyboard-response","674","1087148","0.0-4.0-1.65","true"
"957","ImagesCoins/10R97.5.png","190","test",",","image-keyboard-response","676","1088610","0.0-4.0-1.66","false"
"1459","ImagesCoins/10L105.png","188","test",",","image-keyboard-response","678","1090572","0.0-4.0-1.67","true"
"1500","ImagesCoins/10L107.5.png","188","test",",","image-keyboard-response","680","1092578","0.0-4.0-1.68","true"
"1181","ImagesCoins/10R107.5.png","190","test",".","image-keyboard-response","682","1094264","0.0-4.0-1.69","true"
"2518","ImagesCoins/10L102.5.png","188","test",",","image-keyboard-response","684","1097286","0.0-4.0-1.70","true"
"907","ImagesCoins/10L95.png","190","test",".","image-keyboard-response","686","1098697","0.0-4.0-1.71","true"
"1145","ImagesCoins/10L92.5.png","190","test",".","image-keyboard-response","688","1100346","0.0-4.0-1.72","true"
"1138","ImagesCoins/10L90.png","190","test",".","image-keyboard-response","690","1101990","0.0-4.0-1.73","true"
"3856","ImagesCoins/10L97.5.png","190","test",".","image-keyboard-response","692","1106351","0.0-4.0-1.74","true"
"1273","ImagesCoins/10R107.5.png","190","test",".","image-keyboard-response","694","1108130","0.0-4.0-1.75","true"
"1562","ImagesCoins/10R100.png","190","test",".","image-keyboard-response","696","1110196","0.0-4.0-1.76","true"
"4251","ImagesCoins/10L100.png","188","test",".","image-keyboard-response","698","1114950","0.0-4.0-1.77","false"
"2664","ImagesCoins/10R90.png","188","test",",","image-keyboard-response","700","1118120","0.0-4.0-1.78","true"
"2595","ImagesCoins/10L102.5.png","188","test",",","image-keyboard-response","702","1121222","0.0-4.0-1.79","true"
"1248","ImagesCoins/10L95.png","190","test",".","image-keyboard-response","704","1122975","0.0-4.0-1.80","true"
"1711","ImagesCoins/10R95.png","190","test",",","image-keyboard-response","706","1125190","0.0-4.0-1.81","false"
"873","ImagesCoins/10R110.png","190","test",".","image-keyboard-response","708","1126568","0.0-4.0-1.82","true"
"1078","ImagesCoins/10L105.png","188","test",",","image-keyboard-response","710","1128150","0.0-4.0-1.83","true"
"767","ImagesCoins/10R102.5.png","190","test",".","image-keyboard-response","712","1129421","0.0-4.0-1.84","true"
"856","ImagesCoins/10R97.5.png","190","test",",","image-keyboard-response","714","1130782","0.0-4.0-1.85","false"
"1188","ImagesCoins/10L110.png","188","test",",","image-keyboard-response","716","1132475","0.0-4.0-1.86","true"
"822","ImagesCoins/10R105.png","190","test",".","image-keyboard-response","718","1133802","0.0-4.0-1.87","true"
"3546","ImagesCoins/10R92.5.png","190","test",",","image-keyboard-response","720","1137851","0.0-4.0-1.88","false"
"1963","ImagesCoins/10L107.5.png","188","test",",","image-keyboard-response","722","1140319","0.0-4.0-1.89","true"
