"rt","stimulus","key_press","test_part","correct_response","trial_type","trial_index","time_elapsed","internal_node_id","correct"
"2452","ImagesTennis/TR92.5.png","188","test",",","image-keyboard-response","4","33180","0.0-3.0-1.0","true"
"1218","ImagesDirect/VR102.5.png","190","test",".","image-keyboard-response","6","34908","0.0-3.0-1.1","true"
"3067","ImagesDirect/VR92.5.png","188","test",",","image-keyboard-response","8","38477","0.0-3.0-1.2","true"
"3583","ImagesSoccer/VL95.png","190","test",".","image-keyboard-response","10","42570","0.0-3.0-1.3","true"
"1130","ImagesTennis/TR110.png","190","test",".","image-keyboard-response","12","44214","0.0-3.0-1.4","true"
"908","ImagesSoccer/VR102.5.png","190","test",".","image-keyboard-response","14","45628","0.0-3.0-1.5","true"
"1111","ImagesDirect/VR107.5.png","190","test",".","image-keyboard-response","16","47246","0.0-3.0-1.6","true"
"1088","ImagesSoccer/VR100.png","190","test",".","image-keyboard-response","18","48840","0.0-3.0-1.7","true"
"1134","ImagesTennis/TR90.png","188","test",",","image-keyboard-response","20","50483","0.0-3.0-1.8","true"
"1669","ImagesTennis/TR97.5.png","190","test",",","image-keyboard-response","22","52654","0.0-3.0-1.9","false"
"1408","ImagesTennis/TR95.png","188","test",",","image-keyboard-response","24","54575","0.0-3.0-1.10","true"
"1584","ImagesSoccer/VL102.5.png","188","test",",","image-keyboard-response","26","56668","0.0-3.0-1.11","true"
"944","ImagesDirect/VL90.png","190","test",".","image-keyboard-response","28","58128","0.0-3.0-1.12","true"
"1291","ImagesSoccer/VR92.5.png","188","test",",","image-keyboard-response","30","59929","0.0-3.0-1.13","true"
"994","ImagesDirect/VR95.png","190","test",",","image-keyboard-response","32","61437","0.0-3.0-1.14","false"
"2522","ImagesTennis/TL102.5.png","190","test",",","image-keyboard-response","34","64467","0.0-3.0-1.15","false"
"881","ImagesTennis/TL107.5.png","188","test",",","image-keyboard-response","36","65858","0.0-3.0-1.16","true"
"939","ImagesDirect/VR97.5.png","190","test",",","image-keyboard-response","38","67301","0.0-3.0-1.17","false"
"903","ImagesTennis/TL100.png","190","test",".","image-keyboard-response","40","68720","0.0-3.0-1.18","true"
"1002","ImagesTennis/TR107.5.png","190","test",".","image-keyboard-response","42","70230","0.0-3.0-1.19","true"
"737","ImagesDirect/VL110.png","188","test",",","image-keyboard-response","44","71484","0.0-3.0-1.20","true"
"774","ImagesTennis/TL97.5.png","190","test",".","image-keyboard-response","46","72769","0.0-3.0-1.21","true"
"651","ImagesSoccer/VR110.png","190","test",".","image-keyboard-response","48","73928","0.0-3.0-1.22","true"
"4105","ImagesDirect/VL100.png","188","test",".","image-keyboard-response","50","78549","0.0-3.0-1.23","false"
"1880","ImagesDirect/VR100.png","190","test",".","image-keyboard-response","52","80941","0.0-3.0-1.24","true"
"2531","ImagesSoccer/VL110.png","188","test",",","image-keyboard-response","54","83975","0.0-3.0-1.25","true"
"1262","ImagesDirect/VL107.5.png","188","test",",","image-keyboard-response","56","85741","0.0-3.0-1.26","true"
"4514","ImagesDirect/VR90.png","188","test",",","image-keyboard-response","58","90758","0.0-3.0-1.27","true"
"1640","ImagesDirect/VR110.png","190","test",".","image-keyboard-response","60","92903","0.0-3.0-1.28","true"
"4090","ImagesTennis/TL105.png","188","test",",","image-keyboard-response","62","97500","0.0-3.0-1.29","true"
"1024","ImagesTennis/TL90.png","190","test",".","image-keyboard-response","64","99036","0.0-3.0-1.30","true"
"3428","ImagesTennis/TR102.5.png","190","test",".","image-keyboard-response","66","102974","0.0-3.0-1.31","true"
"824","ImagesDirect/VR105.png","190","test",".","image-keyboard-response","68","104303","0.0-3.0-1.32","true"
"2393","ImagesTennis/TR100.png","190","test",".","image-keyboard-response","70","107207","0.0-3.0-1.33","true"
"953","ImagesSoccer/VR105.png","190","test",".","image-keyboard-response","72","108666","0.0-3.0-1.34","true"
"1216","ImagesDirect/VL105.png","188","test",",","image-keyboard-response","74","110394","0.0-3.0-1.35","true"
"1176","ImagesSoccer/VL105.png","188","test",",","image-keyboard-response","76","112076","0.0-3.0-1.36","true"
"939","ImagesDirect/VL97.5.png","190","test",".","image-keyboard-response","78","113522","0.0-3.0-1.37","true"
"822","ImagesTennis/TR105.png","190","test",".","image-keyboard-response","80","114852","0.0-3.0-1.38","true"
"719","ImagesSoccer/VR107.5.png","190","test",".","image-keyboard-response","82","116079","0.0-3.0-1.39","true"
"1200","ImagesDirect/VL92.5.png","190","test",".","image-keyboard-response","84","117792","0.0-3.0-1.40","true"
"740","ImagesSoccer/VL92.5.png","190","test",".","image-keyboard-response","86","119046","0.0-3.0-1.41","true"
"845","ImagesTennis/TL92.5.png","190","test",".","image-keyboard-response","88","120406","0.0-3.0-1.42","true"
"887","ImagesDirect/VL102.5.png","188","test",",","image-keyboard-response","90","121802","0.0-3.0-1.43","true"
"711","ImagesTennis/TL110.png","188","test",",","image-keyboard-response","92","123031","0.0-3.0-1.44","true"
"825","ImagesSoccer/VL90.png","190","test",".","image-keyboard-response","94","124363","0.0-3.0-1.45","true"
"736","ImagesSoccer/VL97.5.png","188","test",".","image-keyboard-response","96","125608","0.0-3.0-1.46","false"
"1324","ImagesSoccer/VR97.5.png","190","test",",","image-keyboard-response","98","127444","0.0-3.0-1.47","false"
"671","ImagesSoccer/VR95.png","190","test",",","image-keyboard-response","100","128629","0.0-3.0-1.48","false"
"1089","ImagesSoccer/VR90.png","188","test",",","image-keyboard-response","102","130232","0.0-3.0-1.49","true"
"584","ImagesSoccer/VL107.5.png","188","test",",","image-keyboard-response","104","131324","0.0-3.0-1.50","true"
"713","ImagesTennis/TL95.png","190","test",".","image-keyboard-response","106","132546","0.0-3.0-1.51","true"
"1249","ImagesSoccer/VL100.png","188","test",".","image-keyboard-response","108","134301","0.0-3.0-1.52","false"
"986","ImagesDirect/VL95.png","190","test",".","image-keyboard-response","110","135791","0.0-3.0-1.53","true"
"1493","ImagesDirect/VR105.png","190","test",".","image-keyboard-response","112","137794","0.0-3.0-1.54","true"
"747","ImagesTennis/TR90.png","188","test",",","image-keyboard-response","114","139048","0.0-3.0-1.55","true"
"1475","ImagesTennis/TL105.png","190","test",",","image-keyboard-response","116","141028","0.0-3.0-1.56","false"
"751","ImagesSoccer/VL90.png","190","test",".","image-keyboard-response","118","142291","0.0-3.0-1.57","true"
"850","ImagesDirect/VL90.png","190","test",".","image-keyboard-response","120","143657","0.0-3.0-1.58","true"
"871","ImagesDirect/VR97.5.png","190","test",",","image-keyboard-response","122","145039","0.0-3.0-1.59","false"
"810","ImagesDirect/VL105.png","188","test",",","image-keyboard-response","124","146362","0.0-3.0-1.60","true"
"810","ImagesDirect/VL102.5.png","188","test",",","image-keyboard-response","126","147688","0.0-3.0-1.61","true"
"1005","ImagesSoccer/VL105.png","188","test",",","image-keyboard-response","128","149227","0.0-3.0-1.62","true"
"848","ImagesDirect/VL110.png","188","test",",","image-keyboard-response","130","150597","0.0-3.0-1.63","true"
"1839","ImagesSoccer/VR97.5.png","188","test",",","image-keyboard-response","132","152985","0.0-3.0-1.64","true"
"841","ImagesDirect/VL97.5.png","188","test",".","image-keyboard-response","134","154328","0.0-3.0-1.65","false"
"644","ImagesTennis/TL90.png","190","test",".","image-keyboard-response","136","155483","0.0-3.0-1.66","true"
"776","ImagesTennis/TL107.5.png","188","test",",","image-keyboard-response","138","156763","0.0-3.0-1.67","true"
"975","ImagesTennis/TR95.png","188","test",",","image-keyboard-response","140","158246","0.0-3.0-1.68","true"
"768","ImagesTennis/TR92.5.png","188","test",",","image-keyboard-response","142","159522","0.0-3.0-1.69","true"
"887","ImagesDirect/VR102.5.png","190","test",".","image-keyboard-response","144","160923","0.0-3.0-1.70","true"
"1231","ImagesSoccer/VR95.png","188","test",",","image-keyboard-response","146","162667","0.0-3.0-1.71","true"
"1010","ImagesDirect/VL95.png","188","test",".","image-keyboard-response","148","164180","0.0-3.0-1.72","false"
"754","ImagesTennis/TR105.png","190","test",".","image-keyboard-response","150","165443","0.0-3.0-1.73","true"
"688","ImagesTennis/TL110.png","188","test",",","image-keyboard-response","152","166641","0.0-3.0-1.74","true"
"660","ImagesTennis/TL92.5.png","190","test",".","image-keyboard-response","154","167812","0.0-3.0-1.75","true"
"1131","ImagesDirect/VR100.png","190","test",".","image-keyboard-response","156","169450","0.0-3.0-1.76","true"
"997","ImagesTennis/TR107.5.png","190","test",".","image-keyboard-response","158","170950","0.0-3.0-1.77","true"
"596","ImagesSoccer/VL110.png","188","test",",","image-keyboard-response","160","172050","0.0-3.0-1.78","true"
"1098","ImagesSoccer/VL100.png","188","test",".","image-keyboard-response","162","173654","0.0-3.0-1.79","false"
"1458","ImagesTennis/TR100.png","188","test",".","image-keyboard-response","164","175628","0.0-3.0-1.80","false"
"495","ImagesDirect/VR107.5.png","190","test",".","image-keyboard-response","166","176630","0.0-3.0-1.81","true"
"712","ImagesSoccer/VR102.5.png","190","test",".","image-keyboard-response","168","177849","0.0-3.0-1.82","true"
"655","ImagesTennis/TL97.5.png","190","test",".","image-keyboard-response","170","179009","0.0-3.0-1.83","true"
"841","ImagesTennis/TL102.5.png","190","test",",","image-keyboard-response","172","180359","0.0-3.0-1.84","false"
"489","ImagesDirect/VR110.png","190","test",".","image-keyboard-response","174","181361","0.0-3.0-1.85","true"
"639","ImagesDirect/VR90.png","188","test",",","image-keyboard-response","176","182509","0.0-3.0-1.86","true"
"767","ImagesSoccer/VR105.png","190","test",".","image-keyboard-response","178","183786","0.0-3.0-1.87","true"
"608","ImagesTennis/TL95.png","190","test",".","image-keyboard-response","180","184912","0.0-3.0-1.88","true"
"403","ImagesSoccer/VR110.png","190","test",".","image-keyboard-response","182","185825","0.0-3.0-1.89","true"
"707","ImagesSoccer/VR92.5.png","188","test",",","image-keyboard-response","184","187044","0.0-3.0-1.90","true"
"455","ImagesTennis/TR110.png","190","test",".","image-keyboard-response","186","188007","0.0-3.0-1.91","true"
"626","ImagesSoccer/VL102.5.png","188","test",",","image-keyboard-response","188","189147","0.0-3.0-1.92","true"
"671","ImagesSoccer/VR100.png","190","test",".","image-keyboard-response","190","190326","0.0-3.0-1.93","true"
"409","ImagesDirect/VR95.png","190","test",",","image-keyboard-response","192","191249","0.0-3.0-1.94","false"
"460","ImagesSoccer/VR107.5.png","190","test",".","image-keyboard-response","194","192213","0.0-3.0-1.95","true"
"1776","ImagesTennis/TR97.5.png","188","test",",","image-keyboard-response","196","194501","0.0-3.0-1.96","true"
"580","ImagesSoccer/VL92.5.png","190","test",".","image-keyboard-response","198","195583","0.0-3.0-1.97","true"
"603","ImagesDirect/VL107.5.png","188","test",",","image-keyboard-response","200","196689","0.0-3.0-1.98","true"
"1541","ImagesSoccer/VL97.5.png","188","test",".","image-keyboard-response","202","198743","0.0-3.0-1.99","false"
"590","ImagesSoccer/VL95.png","190","test",".","image-keyboard-response","204","199843","0.0-3.0-1.100","true"
"1709","ImagesTennis/TR102.5.png","190","test",".","image-keyboard-response","206","202062","0.0-3.0-1.101","true"
"1196","ImagesSoccer/VR90.png","188","test",",","image-keyboard-response","208","203768","0.0-3.0-1.102","true"
"623","ImagesSoccer/VL107.5.png","188","test",",","image-keyboard-response","210","204893","0.0-3.0-1.103","true"
"1372","ImagesTennis/TL100.png","188","test",".","image-keyboard-response","212","206776","0.0-3.0-1.104","false"
"1346","ImagesDirect/VR92.5.png","188","test",",","image-keyboard-response","214","208632","0.0-3.0-1.105","true"
"575","ImagesDirect/VL100.png","188","test",".","image-keyboard-response","216","209712","0.0-3.0-1.106","false"
"755","ImagesDirect/VL92.5.png","188","test",".","image-keyboard-response","218","210974","0.0-3.0-1.107","false"
"489","ImagesSoccer/VL110.png","188","test",",","image-keyboard-response","220","211975","0.0-3.0-1.108","true"
"956","ImagesTennis/TL105.png","190","test",",","image-keyboard-response","222","213443","0.0-3.0-1.109","false"
"684","ImagesSoccer/VR102.5.png","190","test",".","image-keyboard-response","224","214640","0.0-3.0-1.110","true"
"619","ImagesTennis/TL92.5.png","190","test",".","image-keyboard-response","226","215773","0.0-3.0-1.111","true"
"563","ImagesDirect/VL102.5.png","188","test",",","image-keyboard-response","228","216847","0.0-3.0-1.112","true"
"734","ImagesDirect/VR100.png","190","test",".","image-keyboard-response","230","218096","0.0-3.0-1.113","true"
"554","ImagesTennis/TR92.5.png","188","test",",","image-keyboard-response","232","219166","0.0-3.0-1.114","true"
"471","ImagesDirect/VR95.png","190","test",",","image-keyboard-response","234","220148","0.0-3.0-1.115","false"
"481","ImagesTennis/TR110.png","190","test",".","image-keyboard-response","236","221146","0.0-3.0-1.116","true"
"804","ImagesDirect/VL100.png","188","test",".","image-keyboard-response","238","222487","0.0-3.0-1.117","false"
"472","ImagesDirect/VL107.5.png","188","test",",","image-keyboard-response","240","223473","0.0-3.0-1.118","true"
"900","ImagesDirect/VR90.png","188","test",",","image-keyboard-response","242","224889","0.0-3.0-1.119","true"
"1062","ImagesTennis/TR100.png","190","test",".","image-keyboard-response","244","226468","0.0-3.0-1.120","true"
"713","ImagesDirect/VR92.5.png","190","test",",","image-keyboard-response","246","227684","0.0-3.0-1.121","false"
"785","ImagesSoccer/VL102.5.png","188","test",",","image-keyboard-response","248","228973","0.0-3.0-1.122","true"
"671","ImagesSoccer/VL97.5.png","190","test",".","image-keyboard-response","250","230158","0.0-3.0-1.123","true"
"1265","ImagesSoccer/VR92.5.png","188","test",",","image-keyboard-response","252","231937","0.0-3.0-1.124","true"
"486","ImagesTennis/TL90.png","190","test",".","image-keyboard-response","254","232939","0.0-3.0-1.125","true"
"482","ImagesTennis/TL95.png","190","test",".","image-keyboard-response","256","233936","0.0-3.0-1.126","true"
"535","ImagesSoccer/VL107.5.png","188","test",",","image-keyboard-response","258","234988","0.0-3.0-1.127","true"
"420","ImagesDirect/VR105.png","190","test",".","image-keyboard-response","260","235924","0.0-3.0-1.128","true"
"1009","ImagesSoccer/VL90.png","190","test",".","image-keyboard-response","262","237446","0.0-3.0-1.129","true"
"625","ImagesTennis/TR90.png","188","test",",","image-keyboard-response","264","238580","0.0-3.0-1.130","true"
"540","ImagesSoccer/VL105.png","188","test",",","image-keyboard-response","266","239635","0.0-3.0-1.131","true"
"592","ImagesTennis/TL110.png","188","test",",","image-keyboard-response","268","240737","0.0-3.0-1.132","true"
"1688","ImagesDirect/VL92.5.png","188","test",".","image-keyboard-response","270","242934","0.0-3.0-1.133","false"
"503","ImagesSoccer/VR107.5.png","190","test",".","image-keyboard-response","272","243949","0.0-3.0-1.134","true"
"1972","ImagesDirect/VL95.png","188","test",".","image-keyboard-response","274","246434","0.0-3.0-1.135","false"
"2064","ImagesTennis/TL102.5.png","190","test",",","image-keyboard-response","276","249010","0.0-3.0-1.136","false"
"1159","ImagesTennis/TR97.5.png","188","test",",","image-keyboard-response","278","250673","0.0-3.0-1.137","true"
"1107","ImagesTennis/TL100.png","188","test",".","image-keyboard-response","280","252287","0.0-3.0-1.138","false"
"696","ImagesDirect/VL97.5.png","188","test",".","image-keyboard-response","282","253490","0.0-3.0-1.139","false"
"2152","ImagesSoccer/VL95.png","188","test",".","image-keyboard-response","284","256152","0.0-3.0-1.140","false"
"770","ImagesSoccer/VR105.png","190","test",".","image-keyboard-response","286","257436","0.0-3.0-1.141","true"
"782","ImagesTennis/TL107.5.png","188","test",",","image-keyboard-response","288","258732","0.0-3.0-1.142","true"
"648","ImagesTennis/TR105.png","190","test",".","image-keyboard-response","290","259894","0.0-3.0-1.143","true"
"781","ImagesDirect/VL90.png","190","test",".","image-keyboard-response","292","261179","0.0-3.0-1.144","true"
"505","ImagesTennis/TR107.5.png","190","test",".","image-keyboard-response","294","262190","0.0-3.0-1.145","true"
"887","ImagesSoccer/VR90.png","188","test",",","image-keyboard-response","296","263587","0.0-3.0-1.146","true"
"532","ImagesSoccer/VR100.png","190","test",".","image-keyboard-response","298","264629","0.0-3.0-1.147","true"
"1260","ImagesSoccer/VR97.5.png","190","test",",","image-keyboard-response","300","266406","0.0-3.0-1.148","false"
"763","ImagesSoccer/VL100.png","188","test",".","image-keyboard-response","302","267680","0.0-3.0-1.149","false"
"510","ImagesSoccer/VR95.png","190","test",",","image-keyboard-response","304","268694","0.0-3.0-1.150","false"
"663","ImagesTennis/TR102.5.png","190","test",".","image-keyboard-response","306","269861","0.0-3.0-1.151","true"
"622","ImagesDirect/VL105.png","188","test",",","image-keyboard-response","308","270985","0.0-3.0-1.152","true"
"567","ImagesDirect/VR107.5.png","190","test",".","image-keyboard-response","310","272063","0.0-3.0-1.153","true"
"750","ImagesTennis/TR95.png","188","test",",","image-keyboard-response","312","273317","0.0-3.0-1.154","true"
"570","ImagesSoccer/VR110.png","190","test",".","image-keyboard-response","314","274404","0.0-3.0-1.155","true"
"885","ImagesDirect/VR97.5.png","190","test",",","image-keyboard-response","316","275802","0.0-3.0-1.156","false"
"569","ImagesSoccer/VL92.5.png","190","test",".","image-keyboard-response","318","276883","0.0-3.0-1.157","true"
"644","ImagesDirect/VL110.png","188","test",",","image-keyboard-response","320","278040","0.0-3.0-1.158","true"
"672","ImagesDirect/VR110.png","190","test",".","image-keyboard-response","322","279224","0.0-3.0-1.159","true"
"988","ImagesTennis/TL97.5.png","190","test",".","image-keyboard-response","324","280718","0.0-3.0-1.160","true"
"637","ImagesDirect/VR102.5.png","190","test",".","image-keyboard-response","326","281868","0.0-3.0-1.161","true"
"603","ImagesSoccer/VL90.png","190","test",".","image-keyboard-response","328","282983","0.0-3.0-1.162","true"
"668","ImagesTennis/TL107.5.png","188","test",",","image-keyboard-response","330","284165","0.0-3.0-1.163","true"
"1125","ImagesDirect/VL100.png","188","test",".","image-keyboard-response","332","285808","0.0-3.0-1.164","false"
"586","ImagesDirect/VL90.png","190","test",".","image-keyboard-response","334","286900","0.0-3.0-1.165","true"
"781","ImagesSoccer/VL97.5.png","190","test",".","image-keyboard-response","336","288194","0.0-3.0-1.166","true"
"717","ImagesSoccer/VL95.png","190","test",".","image-keyboard-response","338","289418","0.0-3.0-1.167","true"
"560","ImagesDirect/VL107.5.png","188","test",",","image-keyboard-response","340","290490","0.0-3.0-1.168","true"
"693","ImagesSoccer/VL107.5.png","188","test",",","image-keyboard-response","342","291690","0.0-3.0-1.169","true"
"965","ImagesDirect/VR97.5.png","188","test",",","image-keyboard-response","344","293161","0.0-3.0-1.170","true"
"605","ImagesDirect/VR105.png","190","test",".","image-keyboard-response","346","294269","0.0-3.0-1.171","true"
"579","ImagesTennis/TL110.png","188","test",",","image-keyboard-response","348","295361","0.0-3.0-1.172","true"
"627","ImagesDirect/VR110.png","190","test",".","image-keyboard-response","350","296492","0.0-3.0-1.173","true"
"1600","ImagesDirect/VL95.png","188","test",".","image-keyboard-response","352","298599","0.0-3.0-1.174","false"
"1300","ImagesSoccer/VR95.png","188","test",",","image-keyboard-response","354","300404","0.0-3.0-1.175","true"
"580","ImagesSoccer/VR107.5.png","190","test",".","image-keyboard-response","356","301492","0.0-3.0-1.176","true"
"1670","ImagesDirect/VR95.png","190","test",",","image-keyboard-response","358","303674","0.0-3.0-1.177","false"
"904","ImagesDirect/VR92.5.png","188","test",",","image-keyboard-response","360","305090","0.0-3.0-1.178","true"
"513","ImagesTennis/TL102.5.png","188","test",",","image-keyboard-response","362","306116","0.0-3.0-1.179","true"
"453","ImagesTennis/TL105.png","188","test",",","image-keyboard-response","364","307073","0.0-3.0-1.180","true"
"742","ImagesTennis/TR102.5.png","188","test",".","image-keyboard-response","366","308329","0.0-3.0-1.181","false"
"1293","ImagesDirect/VR100.png","190","test",".","image-keyboard-response","368","310131","0.0-3.0-1.182","true"
"538","ImagesTennis/TR110.png","190","test",".","image-keyboard-response","370","311177","0.0-3.0-1.183","true"
"911","ImagesTennis/TR100.png","188","test",".","image-keyboard-response","372","312596","0.0-3.0-1.184","false"
"961","ImagesSoccer/VL102.5.png","188","test",",","image-keyboard-response","374","314065","0.0-3.0-1.185","true"
"695","ImagesTennis/TR97.5.png","188","test",",","image-keyboard-response","376","315266","0.0-3.0-1.186","true"
"526","ImagesDirect/VR107.5.png","190","test",".","image-keyboard-response","378","316300","0.0-3.0-1.187","true"
"449","ImagesSoccer/VR110.png","190","test",".","image-keyboard-response","380","317255","0.0-3.0-1.188","true"
"826","ImagesSoccer/VL105.png","188","test",",","image-keyboard-response","382","318590","0.0-3.0-1.189","true"
"670","ImagesSoccer/VL92.5.png","190","test",".","image-keyboard-response","384","319771","0.0-3.0-1.190","true"
"559","ImagesDirect/VL102.5.png","188","test",",","image-keyboard-response","386","320843","0.0-3.0-1.191","true"
"584","ImagesTennis/TR92.5.png","188","test",",","image-keyboard-response","388","321931","0.0-3.0-1.192","true"
"518","ImagesSoccer/VR105.png","190","test",".","image-keyboard-response","390","322966","0.0-3.0-1.193","true"
"406","ImagesDirect/VR102.5.png","190","test",".","image-keyboard-response","392","323880","0.0-3.0-1.194","true"
"605","ImagesDirect/VL110.png","188","test",",","image-keyboard-response","394","324996","0.0-3.0-1.195","true"
"435","ImagesSoccer/VL110.png","188","test",",","image-keyboard-response","396","325937","0.0-3.0-1.196","true"
"876","ImagesTennis/TL97.5.png","190","test",".","image-keyboard-response","398","327329","0.0-3.0-1.197","true"
"418","ImagesTennis/TL90.png","190","test",".","image-keyboard-response","400","328260","0.0-3.0-1.198","true"
"739","ImagesSoccer/VR90.png","188","test",",","image-keyboard-response","402","329512","0.0-3.0-1.199","true"
"1230","ImagesDirect/VL97.5.png","188","test",".","image-keyboard-response","404","331249","0.0-3.0-1.200","false"
"856","ImagesTennis/TL95.png","190","test",".","image-keyboard-response","406","332610","0.0-3.0-1.201","true"
"668","ImagesDirect/VR90.png","188","test",",","image-keyboard-response","408","333791","0.0-3.0-1.202","true"
"1093","ImagesTennis/TR105.png","190","test",".","image-keyboard-response","410","335396","0.0-3.0-1.203","true"
"664","ImagesDirect/VL105.png","188","test",",","image-keyboard-response","412","336569","0.0-3.0-1.204","true"
"995","ImagesTennis/TR95.png","188","test",",","image-keyboard-response","414","338067","0.0-3.0-1.205","true"
"851","ImagesTennis/TR90.png","188","test",",","image-keyboard-response","416","339424","0.0-3.0-1.206","true"
"687","ImagesSoccer/VR100.png","190","test",".","image-keyboard-response","418","340623","0.0-3.0-1.207","true"
"358","ImagesTennis/TR107.5.png","190","test",".","image-keyboard-response","420","341495","0.0-3.0-1.208","true"
"319","ImagesSoccer/VR97.5.png","190","test",",","image-keyboard-response","422","342321","0.0-3.0-1.209","false"
"542","ImagesDirect/VL92.5.png","190","test",".","image-keyboard-response","424","343372","0.0-3.0-1.210","true"
"341","ImagesSoccer/VL100.png","190","test",".","image-keyboard-response","426","344228","0.0-3.0-1.211","true"
"485","ImagesSoccer/VR102.5.png","190","test",".","image-keyboard-response","428","345224","0.0-3.0-1.212","true"
"617","ImagesTennis/TL92.5.png","190","test",".","image-keyboard-response","430","346353","0.0-3.0-1.213","true"
"322","ImagesSoccer/VR92.5.png","190","test",",","image-keyboard-response","432","347178","0.0-3.0-1.214","false"
"1243","ImagesTennis/TL100.png","188","test",".","image-keyboard-response","434","348934","0.0-3.0-1.215","false"
"431","ImagesTennis/TL110.png","188","test",",","image-keyboard-response","436","349869","0.0-3.0-1.216","true"
"394","ImagesSoccer/VL100.png","188","test",".","image-keyboard-response","438","350781","0.0-3.0-1.217","false"
"737","ImagesTennis/TL102.5.png","188","test",",","image-keyboard-response","440","352025","0.0-3.0-1.218","true"
"640","ImagesTennis/TL95.png","190","test",".","image-keyboard-response","442","353180","0.0-3.0-1.219","true"
"522","ImagesSoccer/VL107.5.png","188","test",",","image-keyboard-response","444","354209","0.0-3.0-1.220","true"
"461","ImagesDirect/VL110.png","188","test",",","image-keyboard-response","446","355184","0.0-3.0-1.221","true"
"527","ImagesDirect/VR105.png","190","test",".","image-keyboard-response","448","356215","0.0-3.0-1.222","true"
"899","ImagesTennis/TL105.png","190","test",",","image-keyboard-response","450","357624","0.0-3.0-1.223","false"
"567","ImagesTennis/TR105.png","190","test",".","image-keyboard-response","452","358705","0.0-3.0-1.224","true"
"293","ImagesDirect/VR100.png","190","test",".","image-keyboard-response","454","359510","0.0-3.0-1.225","true"
"826","ImagesDirect/VR92.5.png","188","test",",","image-keyboard-response","456","360843","0.0-3.0-1.226","true"
"16309","ImagesDirect/VR97.5.png","188","test",",","image-keyboard-response","458","377660","0.0-3.0-1.227","true"
"587","ImagesTennis/TL97.5.png","188","test",".","image-keyboard-response","460","378755","0.0-3.0-1.228","false"
"486","ImagesSoccer/VL97.5.png","188","test",".","image-keyboard-response","462","379747","0.0-3.0-1.229","false"
"517","ImagesDirect/VL107.5.png","188","test",",","image-keyboard-response","464","380767","0.0-3.0-1.230","true"
"424","ImagesDirect/VL105.png","188","test",",","image-keyboard-response","466","381708","0.0-3.0-1.231","true"
"1397","ImagesDirect/VR102.5.png","190","test",".","image-keyboard-response","468","383611","0.0-3.0-1.232","true"
"694","ImagesTennis/TL107.5.png","188","test",",","image-keyboard-response","470","384813","0.0-3.0-1.233","true"
"893","ImagesSoccer/VL95.png","190","test",".","image-keyboard-response","472","386210","0.0-3.0-1.234","true"
"731","ImagesDirect/VL102.5.png","188","test",",","image-keyboard-response","474","387451","0.0-3.0-1.235","true"
"12837","ImagesTennis/TR92.5.png","188","test",",","image-keyboard-response","476","400804","0.0-3.0-1.236","true"
"650","ImagesTennis/TR110.png","190","test",".","image-keyboard-response","478","401967","0.0-3.0-1.237","true"
"487","ImagesDirect/VR107.5.png","190","test",".","image-keyboard-response","480","402971","0.0-3.0-1.238","true"
"508","ImagesTennis/TR102.5.png","190","test",".","image-keyboard-response","482","403992","0.0-3.0-1.239","true"
"460","ImagesTennis/TL92.5.png","190","test",".","image-keyboard-response","484","404961","0.0-3.0-1.240","true"
"681","ImagesDirect/VL92.5.png","190","test",".","image-keyboard-response","486","406149","0.0-3.0-1.241","true"
"979","ImagesDirect/VL95.png","188","test",".","image-keyboard-response","488","407632","0.0-3.0-1.242","false"
"608","ImagesTennis/TR95.png","188","test",",","image-keyboard-response","490","408743","0.0-3.0-1.243","true"
"593","ImagesSoccer/VR105.png","190","test",".","image-keyboard-response","492","409843","0.0-3.0-1.244","true"
"587","ImagesSoccer/VL92.5.png","190","test",".","image-keyboard-response","494","410937","0.0-3.0-1.245","true"
"777","ImagesDirect/VL100.png","188","test",".","image-keyboard-response","496","412228","0.0-3.0-1.246","false"
"718","ImagesDirect/VR90.png","188","test",",","image-keyboard-response","498","413455","0.0-3.0-1.247","true"
"615","ImagesSoccer/VR107.5.png","190","test",".","image-keyboard-response","500","414583","0.0-3.0-1.248","true"
"860","ImagesSoccer/VR97.5.png","188","test",",","image-keyboard-response","502","415959","0.0-3.0-1.249","true"
"590","ImagesTennis/TR100.png","188","test",".","image-keyboard-response","504","417066","0.0-3.0-1.250","false"
"1193","ImagesTennis/TL100.png","188","test",".","image-keyboard-response","506","418770","0.0-3.0-1.251","false"
"1594","ImagesDirect/VL90.png","188","test",".","image-keyboard-response","508","420874","0.0-3.0-1.252","false"
"440","ImagesSoccer/VL110.png","188","test",",","image-keyboard-response","510","421825","0.0-3.0-1.253","true"
"537","ImagesTennis/TR90.png","188","test",",","image-keyboard-response","512","422872","0.0-3.0-1.254","true"
"1059","ImagesSoccer/VR100.png","188","test",".","image-keyboard-response","514","424434","0.0-3.0-1.255","false"
"658","ImagesTennis/TR107.5.png","190","test",".","image-keyboard-response","516","425600","0.0-3.0-1.256","true"
"476","ImagesSoccer/VL102.5.png","188","test",",","image-keyboard-response","518","426592","0.0-3.0-1.257","true"
"517","ImagesSoccer/VR102.5.png","190","test",".","image-keyboard-response","520","427617","0.0-3.0-1.258","true"
"844","ImagesSoccer/VR95.png","188","test",",","image-keyboard-response","522","428975","0.0-3.0-1.259","true"
"617","ImagesTennis/TR97.5.png","188","test",",","image-keyboard-response","524","430098","0.0-3.0-1.260","true"
"479","ImagesSoccer/VL90.png","190","test",".","image-keyboard-response","526","431095","0.0-3.0-1.261","true"
"474","ImagesDirect/VR110.png","190","test",".","image-keyboard-response","528","432074","0.0-3.0-1.262","true"
"862","ImagesDirect/VR95.png","188","test",",","image-keyboard-response","530","433439","0.0-3.0-1.263","true"
"493","ImagesTennis/TL90.png","190","test",".","image-keyboard-response","532","434442","0.0-3.0-1.264","true"
"458","ImagesSoccer/VR110.png","190","test",".","image-keyboard-response","534","435409","0.0-3.0-1.265","true"
"725","ImagesSoccer/VL105.png","188","test",",","image-keyboard-response","536","436642","0.0-3.0-1.266","true"
"755","ImagesSoccer/VR90.png","188","test",",","image-keyboard-response","538","437905","0.0-3.0-1.267","true"
"718","ImagesSoccer/VR92.5.png","188","test",",","image-keyboard-response","540","439134","0.0-3.0-1.268","true"
"490","ImagesDirect/VL97.5.png","188","test",".","image-keyboard-response","542","440140","0.0-3.0-1.269","false"
"4478","ImagesCoins/10R95.png","188","test",",","image-keyboard-response","544","445130","0.0-4.0-1.0","true"
"3311","ImagesCoins/10R90.png","188","test",",","image-keyboard-response","546","448944","0.0-4.0-1.1","true"
"7084","ImagesCoins/10L105.png","188","test",",","image-keyboard-response","548","456535","0.0-4.0-1.2","true"
"1485","ImagesCoins/10L102.5.png","188","test",",","image-keyboard-response","550","458533","0.0-4.0-1.3","true"
"1334","ImagesCoins/10R92.5.png","188","test",",","image-keyboard-response","552","460382","0.0-4.0-1.4","true"
"1184","ImagesCoins/10L107.5.png","188","test",",","image-keyboard-response","554","462069","0.0-4.0-1.5","true"
"909","ImagesCoins/10L110.png","188","test",",","image-keyboard-response","556","463489","0.0-4.0-1.6","true"
"851","ImagesCoins/10R105.png","190","test",".","image-keyboard-response","558","464853","0.0-4.0-1.7","true"
"1107","ImagesCoins/10L90.png","190","test",".","image-keyboard-response","560","466473","0.0-4.0-1.8","true"
"1293","ImagesCoins/10L95.png","190","test",".","image-keyboard-response","562","468276","0.0-4.0-1.9","true"
"5136","ImagesCoins/10R97.5.png","188","test",",","image-keyboard-response","564","473920","0.0-4.0-1.10","true"
"914","ImagesCoins/10R110.png","190","test",".","image-keyboard-response","566","475346","0.0-4.0-1.11","true"
"868","ImagesCoins/10R102.5.png","190","test",".","image-keyboard-response","568","476718","0.0-4.0-1.12","true"
"1112","ImagesCoins/10L97.5.png","190","test",".","image-keyboard-response","570","478343","0.0-4.0-1.13","true"
"1092","ImagesCoins/10R100.png","190","test",".","image-keyboard-response","572","479953","0.0-4.0-1.14","true"
"868","ImagesCoins/10L92.5.png","190","test",".","image-keyboard-response","574","481327","0.0-4.0-1.15","true"
"745","ImagesCoins/10L100.png","188","test",".","image-keyboard-response","576","482586","0.0-4.0-1.16","false"
"865","ImagesCoins/10R107.5.png","190","test",".","image-keyboard-response","578","483962","0.0-4.0-1.17","true"
"468","ImagesCoins/10R102.5.png","190","test",".","image-keyboard-response","580","484941","0.0-4.0-1.18","true"
"592","ImagesCoins/10R100.png","190","test",".","image-keyboard-response","582","486049","0.0-4.0-1.19","true"
"722","ImagesCoins/10R90.png","188","test",",","image-keyboard-response","584","487282","0.0-4.0-1.20","true"
"1680","ImagesCoins/10L97.5.png","190","test",".","image-keyboard-response","586","489471","0.0-4.0-1.21","true"
"1026","ImagesCoins/10L105.png","188","test",",","image-keyboard-response","588","491001","0.0-4.0-1.22","true"
"1491","ImagesCoins/10R97.5.png","188","test",",","image-keyboard-response","590","493002","0.0-4.0-1.23","true"
"641","ImagesCoins/10L95.png","190","test",".","image-keyboard-response","592","494147","0.0-4.0-1.24","true"
"1615","ImagesCoins/10L100.png","190","test",".","image-keyboard-response","594","496276","0.0-4.0-1.25","true"
"954","ImagesCoins/10L102.5.png","188","test",",","image-keyboard-response","596","497732","0.0-4.0-1.26","true"
"519","ImagesCoins/10R110.png","190","test",".","image-keyboard-response","598","498765","0.0-4.0-1.27","true"
"588","ImagesCoins/10L110.png","188","test",",","image-keyboard-response","600","499862","0.0-4.0-1.28","true"
"998","ImagesCoins/10R95.png","190","test",",","image-keyboard-response","602","501371","0.0-4.0-1.29","false"
"754","ImagesCoins/10L90.png","190","test",".","image-keyboard-response","604","502640","0.0-4.0-1.30","true"
"995","ImagesCoins/10L107.5.png","188","test",",","image-keyboard-response","606","504137","0.0-4.0-1.31","true"
"749","ImagesCoins/10L92.5.png","190","test",".","image-keyboard-response","608","505394","0.0-4.0-1.32","true"
"539","ImagesCoins/10R107.5.png","190","test",".","image-keyboard-response","610","506447","0.0-4.0-1.33","true"
"1453","ImagesCoins/10R105.png","190","test",".","image-keyboard-response","612","508411","0.0-4.0-1.34","true"
"967","ImagesCoins/10R92.5.png","188","test",",","image-keyboard-response","614","509895","0.0-4.0-1.35","true"
"580","ImagesCoins/10L110.png","188","test",",","image-keyboard-response","616","510989","0.0-4.0-1.36","true"
"749","ImagesCoins/10R90.png","188","test",",","image-keyboard-response","618","512260","0.0-4.0-1.37","true"
"862","ImagesCoins/10R105.png","190","test",".","image-keyboard-response","620","513664","0.0-4.0-1.38","true"
"977","ImagesCoins/10L95.png","190","test",".","image-keyboard-response","622","515165","0.0-4.0-1.39","true"
"611","ImagesCoins/10L107.5.png","188","test",",","image-keyboard-response","624","516286","0.0-4.0-1.40","true"
"1364","ImagesCoins/10L97.5.png","190","test",".","image-keyboard-response","626","518169","0.0-4.0-1.41","true"
"975","ImagesCoins/10R92.5.png","188","test",",","image-keyboard-response","628","519653","0.0-4.0-1.42","true"
"546","ImagesCoins/10R107.5.png","190","test",".","image-keyboard-response","630","520705","0.0-4.0-1.43","true"
"1230","ImagesCoins/10R97.5.png","188","test",",","image-keyboard-response","632","522440","0.0-4.0-1.44","true"
"648","ImagesCoins/10L90.png","190","test",".","image-keyboard-response","634","523597","0.0-4.0-1.45","true"
"1027","ImagesCoins/10R95.png","188","test",",","image-keyboard-response","636","525140","0.0-4.0-1.46","true"
"595","ImagesCoins/10R102.5.png","190","test",".","image-keyboard-response","638","526243","0.0-4.0-1.47","true"
"542","ImagesCoins/10R100.png","190","test",".","image-keyboard-response","640","527302","0.0-4.0-1.48","true"
"689","ImagesCoins/10L100.png","188","test",".","image-keyboard-response","642","528498","0.0-4.0-1.49","false"
"562","ImagesCoins/10L92.5.png","190","test",".","image-keyboard-response","644","529571","0.0-4.0-1.50","true"
"2619","ImagesCoins/10L102.5.png","188","test",",","image-keyboard-response","646","532696","0.0-4.0-1.51","true"
"509","ImagesCoins/10R110.png","190","test",".","image-keyboard-response","648","533711","0.0-4.0-1.52","true"
"616","ImagesCoins/10L105.png","188","test",",","image-keyboard-response","650","534841","0.0-4.0-1.53","true"
"551","ImagesCoins/10R107.5.png","190","test",".","image-keyboard-response","652","535909","0.0-4.0-1.54","true"
"948","ImagesCoins/10R97.5.png","188","test",",","image-keyboard-response","654","537373","0.0-4.0-1.55","true"
"908","ImagesCoins/10L95.png","190","test",".","image-keyboard-response","656","538793","0.0-4.0-1.56","true"
"1102","ImagesCoins/10R95.png","188","test",",","image-keyboard-response","658","540410","0.0-4.0-1.57","true"
"516","ImagesCoins/10L110.png","188","test",",","image-keyboard-response","660","541428","0.0-4.0-1.58","true"
"1014","ImagesCoins/10L100.png","188","test",".","image-keyboard-response","662","542956","0.0-4.0-1.59","false"
"613","ImagesCoins/10L107.5.png","188","test",",","image-keyboard-response","664","544073","0.0-4.0-1.60","true"
"573","ImagesCoins/10L102.5.png","188","test",",","image-keyboard-response","666","545151","0.0-4.0-1.61","true"
"642","ImagesCoins/10L105.png","188","test",",","image-keyboard-response","668","546300","0.0-4.0-1.62","true"
"594","ImagesCoins/10R102.5.png","190","test",".","image-keyboard-response","670","547403","0.0-4.0-1.63","true"
"800","ImagesCoins/10L97.5.png","190","test",".","image-keyboard-response","672","548709","0.0-4.0-1.64","true"
"591","ImagesCoins/10R105.png","190","test",".","image-keyboard-response","674","549810","0.0-4.0-1.65","true"
"647","ImagesCoins/10R90.png","188","test",",","image-keyboard-response","676","550972","0.0-4.0-1.66","true"
"555","ImagesCoins/10R100.png","190","test",".","image-keyboard-response","678","552032","0.0-4.0-1.67","true"
"471","ImagesCoins/10R110.png","190","test",".","image-keyboard-response","680","553014","0.0-4.0-1.68","true"
"674","ImagesCoins/10L92.5.png","190","test",".","image-keyboard-response","682","554200","0.0-4.0-1.69","true"
"765","ImagesCoins/10R92.5.png","188","test",",","image-keyboard-response","684","555477","0.0-4.0-1.70","true"
"479","ImagesCoins/10L90.png","190","test",".","image-keyboard-response","686","556472","0.0-4.0-1.71","true"
"474","ImagesCoins/10L90.png","190","test",".","image-keyboard-response","688","557452","0.0-4.0-1.72","true"
"693","ImagesCoins/10L110.png","188","test",",","image-keyboard-response","690","558653","0.0-4.0-1.73","true"
"908","ImagesCoins/10L100.png","190","test",".","image-keyboard-response","692","560066","0.0-4.0-1.74","true"
"489","ImagesCoins/10L105.png","188","test",",","image-keyboard-response","694","561067","0.0-4.0-1.75","true"
"394","ImagesCoins/10R102.5.png","190","test",".","image-keyboard-response","696","561969","0.0-4.0-1.76","true"
"1372","ImagesCoins/10R95.png","188","test",",","image-keyboard-response","698","563847","0.0-4.0-1.77","true"
"413","ImagesCoins/10R100.png","190","test",".","image-keyboard-response","700","564773","0.0-4.0-1.78","true"
"549","ImagesCoins/10L95.png","190","test",".","image-keyboard-response","702","565827","0.0-4.0-1.79","true"
"436","ImagesCoins/10L97.5.png","190","test",".","image-keyboard-response","704","566778","0.0-4.0-1.80","true"
"541","ImagesCoins/10R97.5.png","190","test",",","image-keyboard-response","706","567834","0.0-4.0-1.81","false"
"570","ImagesCoins/10L92.5.png","190","test",".","image-keyboard-response","708","568914","0.0-4.0-1.82","true"
"446","ImagesCoins/10L102.5.png","190","test",",","image-keyboard-response","710","569873","0.0-4.0-1.83","false"
"919","ImagesCoins/10R92.5.png","188","test",",","image-keyboard-response","712","571298","0.0-4.0-1.84","true"
"372","ImagesCoins/10R105.png","190","test",".","image-keyboard-response","714","572181","0.0-4.0-1.85","true"
"1668","ImagesCoins/10L107.5.png","188","test",",","image-keyboard-response","716","574363","0.0-4.0-1.86","true"
"380","ImagesCoins/10R107.5.png","190","test",".","image-keyboard-response","718","575260","0.0-4.0-1.87","true"
"452","ImagesCoins/10R110.png","190","test",".","image-keyboard-response","720","576228","0.0-4.0-1.88","true"
"893","ImagesCoins/10R90.png","188","test",",","image-keyboard-response","722","577630","0.0-4.0-1.89","true"
